{
  "resourceType" : "Bundle",
  "id" : "37127",
  "meta" : {
    "profile" : ["http://hl7.org/fhir/uv/emedicinal-product-info/StructureDefinition/Bundle-uv-epi"]
  },
  "language" : "da",
  "identifier" : {
    "system" : "https://www.indlaegssedler.dk/Indlaegssedler/Indlaegsseddel/",
    "value" : "37127"
  },
  "type" : "document",
  "timestamp" : "2021-07-20T01:01:01Z",
  "entry" : [{
    "fullUrl" : "https://gravitatehealth.eu/fhir/nordic-epi/Composition/37127",
    "resource" : {
      "resourceType" : "Composition",
      "id" : "37127",
      "meta" : {
        "profile" : ["http://hl7.org/fhir/uv/emedicinal-product-info/StructureDefinition/Composition-uv-epi",
        "https://gravitatehealth.eu/fhir/nordic-epi-ig/StructureDefinition/Nordic-ePI-Composition-PIL"]
      },
      "language" : "da",
      "text" : {
        "status" : "generated",
        "div" : "<div xmlns=\"http://www.w3.org/1999/xhtml\" xml:lang=\"da\" lang=\"da\"><a name=\"Composition_37127\"> </a><p><b>Generated Narrative: Composition</b><a name=\"37127\"> </a><a name=\"hc37127\"> </a></p><div style=\"display: inline-block; background-color: #d9e0e7; padding: 6px; margin: 4px; border: 1px solid #8da1b4; border-radius: 5px; line-height: 60%\"><p style=\"margin-bottom: 0px\">Resource Composition &quot;37127&quot;  (Language &quot;da&quot;) </p><p style=\"margin-bottom: 0px\">Profiles: <a href=\"https://build.fhir.org/ig/HL7/emedicinal-product-info//StructureDefinition-Composition-uv-epi.html\">Composition (ePI)</a>, <code>https://gravitatehealth.eu/fhir/nordic-epi-ig/StructureDefinition/Nordic-ePI-Composition-PIL</code></p></div><p><b>identifier</b>: <code>https://www.indlaegssedler.dk/Indlaegssedler/Indlaegsseddel/</code>/37127</p><p><b>status</b>: final</p><p><b>type</b>: 100000155538 <span style=\"background: LightGoldenRodYellow; margin: 4px; border: 1px solid khaki\"> (#100000155538)</span></p><p><b>date</b>: 2021-07-20</p><p><b>author</b>: <span><code>https://medicin.dk</code>/medicin.dk</span></p><p><b>title</b>: Hyrimoz 40 mg injektionsvæske, opl. i sprøjte</p><hr/><blockquote><p><b>Generated Narrative: Binary #175084</b><a name=\"175084\"> </a><a name=\"hc175084\"> </a></p><p><b>contentType</b>: image/jpg</p><p><b>data</b>: (base64 data - 51351 bytes)</p></blockquote><hr/><blockquote><p><b>Generated Narrative: Binary #175085</b><a name=\"175085\"> </a><a name=\"hc175085\"> </a></p><p><b>contentType</b>: image/jpg</p><p><b>data</b>: (base64 data - 16917 bytes)</p></blockquote><hr/><blockquote><p><b>Generated Narrative: Binary #175086</b><a name=\"175086\"> </a><a name=\"hc175086\"> </a></p><p><b>contentType</b>: image/jpg</p><p><b>data</b>: (base64 data - 52549 bytes)</p></blockquote><hr/><blockquote><p><b>Generated Narrative: Binary #175087</b><a name=\"175087\"> </a><a name=\"hc175087\"> </a></p><p><b>contentType</b>: image/jpg</p><p><b>data</b>: (base64 data - 13474 bytes)</p></blockquote><hr/><blockquote><p><b>Generated Narrative: Binary #175088</b><a name=\"175088\"> </a><a name=\"hc175088\"> </a></p><p><b>contentType</b>: image/jpg</p><p><b>data</b>: (base64 data - 13959 bytes)</p></blockquote><hr/><blockquote><p><b>Generated Narrative: Binary #175089</b><a name=\"175089\"> </a><a name=\"hc175089\"> </a></p><p><b>contentType</b>: image/jpg</p><p><b>data</b>: (base64 data - 20846 bytes)</p></blockquote><hr/><blockquote><p><b>Generated Narrative: Binary #175090</b><a name=\"175090\"> </a><a name=\"hc175090\"> </a></p><p><b>contentType</b>: image/jpg</p><p><b>data</b>: (base64 data - 19713 bytes)</p></blockquote><hr/><blockquote><p><b>Generated Narrative: Binary #175091</b><a name=\"175091\"> </a><a name=\"hc175091\"> </a></p><p><b>contentType</b>: image/jpg</p><p><b>data</b>: (base64 data - 30901 bytes)</p></blockquote><hr/><blockquote><p><b>Generated Narrative: Binary #175092</b><a name=\"175092\"> </a><a name=\"hc175092\"> </a></p><p><b>contentType</b>: image/jpg</p><p><b>data</b>: (base64 data - 19787 bytes)</p></blockquote><hr/><blockquote><p><b>Generated Narrative: Binary #175093</b><a name=\"175093\"> </a><a name=\"hc175093\"> </a></p><p><b>contentType</b>: image/jpg</p><p><b>data</b>: (base64 data - 21574 bytes)</p></blockquote><hr/><blockquote><p><b>Generated Narrative: Binary #175094</b><a name=\"175094\"> </a><a name=\"hc175094\"> </a></p><p><b>contentType</b>: image/jpg</p><p><b>data</b>: (base64 data - 13842 bytes)</p></blockquote></div>"
      },
      "contained" : [{
        "resourceType" : "Binary",
        "id" : "175084",
        "contentType" : "image/jpg",
        "data" : ""
      },
      {
        "resourceType" : "Binary",
        "id" : "175085",
        "contentType" : "image/jpg",
        "data" : ""
      },
      {
        "resourceType" : "Binary",
        "id" : "175086",
        "contentType" : "image/jpg",
        "data" : ""
      },
      {
        "resourceType" : "Binary",
        "id" : "175087",
        "contentType" : "image/jpg",
        "data" : ""
      },
      {
        "resourceType" : "Binary",
        "id" : "175088",
        "contentType" : "image/jpg",
        "data" : ""
      },
      {
        "resourceType" : "Binary",
        "id" : "175089",
        "contentType" : "image/jpg",
        "data" : ""
      },
      {
        "resourceType" : "Binary",
        "id" : "175090",
        "contentType" : "image/jpg",
        "data" : ""
      },
      {
        "resourceType" : "Binary",
        "id" : "175091",
        "contentType" : "image/jpg",
        "data" : ""
      },
      {
        "resourceType" : "Binary",
        "id" : "175092",
        "contentType" : "image/jpg",
        "data" : ""
      },
      {
        "resourceType" : "Binary",
        "id" : "175093",
        "contentType" : "image/jpg",
        "data" : ""
      },
      {
        "resourceType" : "Binary",
        "id" : "175094",
        "contentType" : "image/jpg",
        "data" : ""
      }],
      "identifier" : [{
        "system" : "https://www.indlaegssedler.dk/Indlaegssedler/Indlaegsseddel/",
        "value" : "37127"
      }],
      "status" : "final",
      "type" : {
        "coding" : [{
          "system" : "https://spor.ema.europa.eu/v1/lists/100000155531/terms/",
          "code" : "100000155538"
        }]
      },
      "subject" : [{
        "reference" : "MedicinalProductDefinition/IBD-MPD-5"
      }],
      "date" : "2021-07-20",
      "author" : [{
        "identifier" : {
          "system" : "https://medicin.dk",
          "value" : "medicin.dk"
        }
      }],
      "title" : "Hyrimoz 40 mg injektionsvæske, opl. i sprøjte",
      "section" : [{
        "title" : "Indlægsseddel: Information til patienten",
        "code" : {
          "coding" : [{
            "system" : "https://spor.ema.europa.eu/v1/lists/200000029659/terms/",
            "code" : "200000029894"
          }]
        },
        "text" : {
          "status" : "additional",
          "div" : "<div xmlns=\"http://www.w3.org/1999/xhtml\">\n                     <a name=\"Section0\"/>\n                     <h2>  Indlægsseddel: Information til brugeren </h2>\n                     <h3>Hyrimoz 40 mg injektionsvæske, opløsning i fyldt injektionssprøjte</h3>\n                     <div class=\"paragraph\">adalimumab</div>\n                     <div class=\"paragraph\">\n                        <br/>▼ Dette lægemiddel er underlagt supplerende overvågning. Dermed kan der hurtigt tilvejebringes nye oplysninger om sikkerheden. Du kan hjælpe ved at indberette alle de bivirkninger, du får. Se sidst i <a href=\"#Section4\" title=\"Anchor link til afsnit - punkt 4\">punkt 4</a>, hvordan du indberetter bivirkninger.</div>\n                     <h3>  Læs hele denne indlægsseddel grundigt, inden du begynder at bruge dette lægemiddel, da den indeholder vigtige oplysninger. </h3>\n                     <ul>\n                        <li>Gem indlægssedlen. Du kan få brug for at læse den igen.</li>\n                        <li>Din læge vil også udlevere et <b>patientkort</b>, der indeholder vigtige sikkerhedsinformationer, som du skal være opmærksom på før og under din behandling med Hyrimoz. Opbevar <b>patientkortet </b>på dig under din behandling og i 4 måneder efter din (eller dit barns) sidste injektion af Hyrimoz.</li>\n                        <li>Spørg lægen eller apotekspersonalet, hvis der er mere, du vil vide.</li>\n                        <li>Lægen har ordineret dette lægemiddel til dig personligt. Lad derfor være med at give medicinen til andre. Det kan være skadeligt for andre, selvom de har samme symptomer, som du har.</li>\n                        <li>Kontakt lægen eller apotekspersonalet, hvis du får bivirkninger, herunder bivirkninger, som ikke er nævnt i denne indlægsseddel. Se <a href=\"#Section4\" title=\"Anchor link til afsnit - punkt 4\">punkt 4</a>.</li>\n                     </ul>\n                     <div class=\"paragraph\">\n                        <br/>Se den nyeste indlægsseddel på <a href=\"https://www.indlaegsseddel.dk\" title=\"null\">www.indlaegsseddel.dk</a>.</div>\n                     <h3>  Oversigt over indlægssedlen: </h3>\n                     <ol>\n                        <li>Virkning og anvendelse</li>\n                        <li>Det skal du vide, før du begynder at tage Hyrimoz</li>\n                        <li>Sådan skal du tage Hyrimoz</li>\n                        <li>Bivirkninger</li>\n                        <li>Opbevaring</li>\n                        <li>Pakningsstørrelser og yderligere oplysninger</li>\n                        <li>Brugsvejledning</li>\n                     </ol>\n                  </div>"
        },
        "section" : [{
          "title" : "1. Virkning og anvendelse",
          "code" : {
            "coding" : [{
              "system" : "https://spor.ema.europa.eu/v1/lists/200000029659/terms/",
              "code" : "200000029895"
            }]
          },
          "text" : {
            "status" : "additional",
            "div" : "<div xmlns=\"http://www.w3.org/1999/xhtml\">\n                        <a name=\"Section1\"/>\n                        <div>\u00a0</div>\n                        <h2>1. Virkning og anvendelse</h2>\n                        <div class=\"paragraph\">Hyrimoz indeholder det aktive stof adalimumab, et lægemiddel, som virker på din krops immunforsvar.</div>\n                        <div class=\"paragraph\">\n                           <br/>Hyrimoz er beregnet til behandlingen af de inflammatoriske sygdomme beskrevet nedenfor:</div>\n                        <ul>\n                           <li>reumatoid artrit</li>\n                           <li>polyartikulær juvenil idiopatisk artrit</li>\n                           <li>entesopatirelateret artrit</li>\n                           <li>ankyloserende spondylitis</li>\n                           <li>aksial spondyloartritis uden radiografiske tegn på AS</li>\n                           <li>psoriasisartrit</li>\n                           <li>psoriasis</li>\n                           <li>hidrosadenitis suppurativa</li>\n                           <li>Crohns sygdom</li>\n                           <li>colitis ulcerosa og</li>\n                           <li>ikke-infektiøs uveitis.</li>\n                        </ul>\n                        <div class=\"paragraph\">\n                           <br/>Det aktive stof i Hyrimoz, adalimumab, er et monoklonalt antistof. Monoklonale antistoffer er proteiner, som binder til et bestemt mål i kroppen.</div>\n                        <div class=\"paragraph\">\n                           <br/>Målet for adalimumab er et andet protein kaldet tumornekrosefaktor (TNFα), som er til stede i øgede mængder ved de inflammatoriske sygdomme nævnt ovenfor. Ved at binde sig til TNFα blokerer Hyrimoz dets virkning og reducerer den inflammatoriske proces ved disse sygdomme.</div>\n                        <div class=\"paragraph\">\n                           <br/>\n                           <b>Reumatoid artrit</b>\n                        </div>\n                        <div class=\"paragraph\">Reumatoid artrit er en betændelsessygdom i leddene.</div>\n                        <div class=\"paragraph\">\n                           <br/>Hyrimoz bruges til at behandle reumatoid artrit hos voksne. Hvis du har moderat til alvorlig aktiv reumatoid artrit, vil du evt. først få andre sygdomsmodificerende antireumatiske lægemidler, såsom methotrexat. Hvis disse lægemidler ikke virker godt nok, kan du få Hyrimoz til behandling af din reumatoide artrit.</div>\n                        <div class=\"paragraph\">\n                           <br/>Hyrimoz kan også anvendes til behandling af alvorlig aktiv og progressiv reumatoid artrit, der ikke tidligere er behandlet med methotrexat.</div>\n                        <div class=\"paragraph\">\n                           <br/>Hyrimoz kan nedsætte hastigheden for ødelæggelse af brusk og knogler i leddene forårsaget af sygdommen og at forbedre de fysiske funktioner.</div>\n                        <div class=\"paragraph\">\n                           <br/>Normalt gives Hyrimoz sammen med methotrexat. Hvis din læge ikke mener, at behandling med methotrexat er hensigtsmæssig, kan Hyrimoz anvendes alene.</div>\n                        <div class=\"paragraph\">\n                           <br/>\n                           <b>Polyartikulær juvenil idiopatisk artrit og entesopatirelateret artrit<br/>\n                           </b>Polyartikulær juvenil idiopatisk artrit og entesopatirelateret artrit er sygdomme med betændelseslignende (inflammatoriske) reaktioner i leddene, som oftest viser sig første gang i barndommen.</div>\n                        <div class=\"paragraph\">\n                           <br/>Hyrimoz bruges til at behandle polyartikulær juvenil idiopatisk artrit hos børn og unge i alderen fra 2 til 17 år og entesopatirelateret artrit hos børn og unge i alderen 6-17 år. Du skal først behandles med anden sygdomsdæmpende medicin såsom methotrexat. Hvis disse lægemidler ikke virker godt nok, vil patienterne få Hyrimoz til behandling af deres polyartikulære juvenile idiopatiske artrit eller entesopatirelateret artrit.</div>\n                        <div class=\"paragraph\">\n                           <br/>\n                           <b>Ankyloserende spondylitis og aksial spondyloartritis uden radiografiske tegn på ankyloserende spondylitis.<br/>\n                           </b>Ankyloserende spondylitis og aksial spondyloartritis uden radiografiske tegn på ankyloserende spondylitis er en inflammatorisk (betændelseslignende) sygdom i rygsøjlen.</div>\n                        <div class=\"paragraph\">\n                           <br/>Hyrimoz bruges til at behandle disse sygdomme hos voksne. Hvis du har ankyloserende spondylitis eller aksial spondyloartritis uden radiografiske tegn på ankyloserende spondylitis, vil du først få anden medicin. Hvis denne anden medicin ikke virker godt nok, kan du få Hyrimoz for at mindske symptomerne på din sygdom.</div>\n                        <div class=\"paragraph\">\n                           <br/>\n                           <b>Plaque-psoriasis hos voksne og børn<br/>\n                           </b>Plaque-psoriasis er en inflammatorisk hudlidelse, som forårsager røde, skællende, skorpede pletter på huden dækket med sølvfarvede skæl. Plaque-psoriasis kan også påvirke neglene. Det får dem til at smuldre, blive fortykkede og løfte sig fra neglelejet, hvilket kan være smertefuldt. Psoriasis formodes at være forårsaget af et problem med kroppens immunsystem, som fører til øget produktion af hudceller.</div>\n                        <div class=\"paragraph\">\n                           <br/>Hyrimoz bruges også til at behandle moderat til alvorlig plaque-psoriasis hos voksne. Hyrimoz bruges også til at behandle alvorlig plaque-psoriasis hos børn og unge i alderen 4 til 17 år, hos hvem lægemidler påført huden og behandlinger med ultraviolet lys enten ikke har virket godt nok eller ikke er egnede.</div>\n                        <div class=\"paragraph\">\n                           <br/>\n                           <b>Psoriasisartrit<br/>\n                           </b>Psoriasisartrit er en betændelsessygdom i leddene, som er forbundet med psoriasis.</div>\n                        <div class=\"paragraph\">\n                           <br/>Hyrimoz bruges til at behandle psoriasisartrit hos voksne. Hyrimoz kan nedsætte hastigheden for ødelæggelse af brusk og knogler i leddene forårsaget af sygdommen og at forbedre den fysiske funktion.</div>\n                        <div class=\"paragraph\">\n                           <br/>\n                           <b>Hidrosadenitis suppurativa hos voksne og unge<br/>\n                           </b>Hidrosadenitis suppurativa (kaldes somme tider svedkirtelbetændelse) er en langvarig, ofte smertefuld betændelseslignende (inflammatorisk) hudsygdom. Symptomerne kan være ømme knuder i huden (noduli) og abscesser (bylder), som kan udtømme pus.</div>\n                        <div class=\"paragraph\">Sygdommen påvirker oftest bestemte områder af huden, såsom under brystet, i armhulerne, på inderlårene, i lyskeområdet og på balderne. Der kan også forekomme ar i de berørte områder.</div>\n                        <div class=\"paragraph\">\n                           <br/>Hyrimoz bruges til at behandle hidrosadenitis suppurativa hos voksne og unge fra 12 år. Hyrimoz kan nedsætte antallet af knuder og bylder og lindre den smerte, som ofte er forbundet med sygdommen. Du kan blive tilbudt anden medicin først. Hvis denne anden medicin ikke virker godt nok, vil du blive tilbudt Hyrimoz.</div>\n                        <div class=\"paragraph\">\n                           <br/>\n                           <b>Crohns sygdom hos voksne og børn<br/>\n                           </b>Crohns sygdom er en inflammatorisk sygdom i tarmen.</div>\n                        <div class=\"paragraph\">\n                           <br/>Hyrimoz bruges til at behandle Crohns sygdom hos voksne og børn i alderen 6-17 år. Hvis du har Crohns sygdom, vil du først få anden medicin. Hvis du ikke har tilstrækkelig effekt af denne medicin, vil du blive tilbudt Hyrimoz for at mindske sygdomstegn og symptomer på din Crohns sygdom.</div>\n                        <div class=\"paragraph\">\n                           <br/>\n                           <b>Colitis ulcerosa<br/>\n                           </b>Colitis ulcerosa er en inflammatorisk (betændelseslignende) sygdom i mave-tarm-kanalen.</div>\n                        <div class=\"paragraph\">\n                           <br/>Hyrimoz bruges til at behandle colitis ulcerosa hos voksne. Hvis du har colitis ulcerosa, vil du først få anden medicin. Hvis denne anden medicin ikke virker godt nok, kan du få Hyrimoz for at mindske symptomerne på din sygdom.</div>\n                        <div class=\"paragraph\">\n                           <br/>\n                           <b>Ikke-infektiøs uveitis hos voksne og børn<br/>\n                           </b>Ikke-infektiøs uveitis er en betændelseslignende (inflammatorisk) sygdom, som påvirker bestemte dele af øjet. Inflammationen kan føre til nedsat syn og/eller fluer i øjet (sorte pletter eller sværm af uklarheder i øjet, som bevæger sig i synsfeltet). Hyrimoz virker ved at reducere denne inflammation.</div>\n                        <div class=\"paragraph\">\n                           <br/>Hyrimoz bruges til at behandle</div>\n                        <ul>\n                           <li>voksne med ikke-infektiøs uveitis (regnbuehindebetændelse), som påvirker den bagerste del af øjet</li>\n                           <li>børn fra 2 år med kronisk ikke-infektiøs uveitis med inflammation, som påvirker forreste del af øjet</li>\n                        </ul>\n                     </div>"
          }
        },
        {
          "title" : "2. Det skal du vide, før du begynder at tage Hyrimoz",
          "code" : {
            "coding" : [{
              "system" : "https://spor.ema.europa.eu/v1/lists/200000029659/terms/",
              "code" : "200000029896"
            }]
          },
          "text" : {
            "status" : "additional",
            "div" : "<div xmlns=\"http://www.w3.org/1999/xhtml\">\n                        <a name=\"Section2\"/>\n                        <div>\u00a0</div>\n                        <h2>2. Det skal du vide, før du begynder at tage Hyrimoz</h2>\n                        <h3>  Tag ikke Hyrimoz    </h3>\n                        <ul>\n                           <li>hvis du er allergisk over for adalimumab eller et af de øvrige indholdsstoffer i Hyrimoz (angivet i <a href=\"#Section6\" title=\"Anchor link til afsnit - punkt 6\">punkt 6</a>).</li>\n                           <li>hvis du har en alvorlig infektion, herunder tuberkulose, sepsis (blodforgiftning) eller andre opportunistiske infektioner (usædvanlige infektioneri forbindelse med et svækket immunforsvar). Det er vigtigt, at du informerer lægen, hvis du har symptomer på infektioner, f.eks. feber, sår, træthedsfornemmelse, tandproblemer (se ”Advarsler og forsigtighedsregler”).</li>\n                           <li>hvis du lider af moderat eller alvorlig hjertesvigt. Det er vigtigt at informere lægen, hvis du har eller har haft en alvorlig hjertesygdom (se ”Advarsler og forsigtighedsregler”).</li>\n                        </ul>\n                        <h3>  Advarsler og forsigtighedsregler </h3>\n                        <div class=\"paragraph\">Kontakt lægen eller apotekspersonalet før anvendelse af Hyrimoz.</div>\n                        <div class=\"paragraph\">\n                           <br/>\n                           <b>Allergisk reaktion</b>\n                        </div>\n                        <ul>\n                           <li>Hvis du får allergiske reaktioner med symptomer som trykken for brystet, hvæsende vejrtrækning, svimmelhed, hævelser eller udslæt, så undlad at injicere mere Hyrimoz, og kontakt straks lægen, da disse reaktioner i sjældne tilfælde kan være livstruende.</li>\n                        </ul>\n                        <div class=\"paragraph\">\n                           <b>\n                              <br/>Infektion</b>\n                        </div>\n                        <ul>\n                           <li>Hvis du har en infektion, herunder langvarig eller lokaliseret infektion (f.eks. bensår), skal du kontakte din læge, før du begynder at bruge Hyrimoz. Kontakt lægen, hvis du er i tvivl.</li>\n                           <li>Infektioner kan opstå lettere under behandling med Hyrimoz. Risikoen kan stige, hvis din lungefunktion er nedsat. Disse infektioner kan være alvorlige og inkluderer tuberkulose, infektioner forårsaget af virus, svampe, parasitter eller bakterier eller andre usædvanlige infektionsorganismer og sepsis (blodforgiftning).</li>\n                           <li>I sjældne tilfælde kan disse infektioner være livstruende. Det er vigtigt at informere lægen, hvis du får symptomer som feber, sår, træthedsfornemmelse eller tandproblemer. Din læge kan anbefale midlertidig afbrydelse af behandling med Hyrimoz.</li>\n                        </ul>\n                        <div class=\"paragraph\">\n                           <b>\n                              <br/>Tuberkulose</b>\n                        </div>\n                        <ul>\n                           <li>Eftersom der har været rapporteret tilfælde af tuberkulose hos patienter i behandling med adalimumab, vil lægen undersøge dig for tegn og symptomer på tuberkulose, før behandling med Hyrimoz påbegyndes. Dette vil omfatte en omhyggelig gennemgang af din sygdomshistorie og screeningstests (f.eks. røntgenundersøgelse af lunger og en tuberkulintest). Disse undersøgelser og resultaterne heraf bør registreres på dit patientkort. Det er meget vigtigt at informere lægen, hvis du nogensinde selv har haft tuberkulose, eller hvis du har været i tæt kontakt med nogen, som har haft tuberkulose. Tuberkulose kan udvikles under behandlingen, også selv om du har fået forebyggende behandling mod tuberkulose Hvis der viser sig symptomer på tuberkulose (vedvarende hoste, vægttab, sløvhed, let feber) eller anden form for infektion under eller efter behandlingen, bør lægen straks informeres.</li>\n                        </ul>\n                        <div class=\"paragraph\">\n                           <b>\n                              <br/>Rejse/gentagne infektioner</b>\n                        </div>\n                        <ul>\n                           <li>Fortæl din læge, hvis du har haft fast bopæl eller rejst i områder, hvor svampeinfektioner som histoplasmose, kokcidioidomyse eller blastomykose er almindelige.</li>\n                           <li>Fortæl din læge, hvis du har en sygdomshistorie med gentagne infektioner eller andre tilfælde, der forøger risikoen for infektioner.</li>\n                        </ul>\n                        <div class=\"paragraph\">\n                           <b>\n                              <br/>Hepatitis B-virus</b>\n                        </div>\n                        <ul>\n                           <li>Fortæl din læge, hvis du er bærer af hepatitis B-virus (HBV), hvis du har aktiv HBV-infektion, eller hvis du tror, du kan have risiko for at få HBV. Lægen vil teste dig for HBV. Adalimumab kan reaktivere HBV-infektion hos mennesker, der bærer denne virus. I sjældne tilfælde, specielt hvis du tager anden medicin, der undertrykker immunsystemet, kan reaktivering af HBV-infektion blive livstruende.</li>\n                        </ul>\n                        <div class=\"paragraph\">\n                           <br/>\n                           <b>Over 65 år</b>\n                        </div>\n                        <ul>\n                           <li>Hvis du er over 65 år, kan du være mere modtagelig for infektioner, mens du tager Hyrimoz. Du og din læge bør være særligt opmærksomme på tegn på infektion mens du er i behandling med Hyrimoz. Det er vigtigt, at du fortæller lægen, hvis du får symptomer på infektion såsom feber, sår, træthedsfornemmelse eller problemer med tænderne.</li>\n                        </ul>\n                        <div class=\"paragraph\">\n                           <b>\n                              <br/>Operation eller tandbehandling</b>\n                        </div>\n                        <ul>\n                           <li>Hvis du skal opereres eller have tandbehandling, skal du fortælle din læge, at du tager Hyrimoz. Din læge kan anbefale midlertidig afbrydelse af Hyrimoz.</li>\n                        </ul>\n                        <div class=\"paragraph\">\n                           <b>\n                              <br/>Demyeliniserende sygdom</b>\n                        </div>\n                        <ul>\n                           <li>Hvis du har eller udvikler demyeliniserende sygdom (en sygdom, der påvirker det isolerende lag rundt om nerverne som dissemineret sklerose), vil din læge afgøre, om du skal have eller fortsætte med at få Hyrimoz. Fortæl straks din læge, hvis du får symptomer såsom ændringer i dit syn, svaghed i arme eller ben eller følelsesløshed eller en snurrende fornemmelse et sted i kroppen.</li>\n                        </ul>\n                        <div class=\"paragraph\">\n                           <b>\n                              <br/>Vacciner</b>\n                        </div>\n                        <ul>\n                           <li>Visse vacciner indeholder levende men svækkede former for sygdomsfremkaldende bakterier eller virusser og bør ikke gives under Hyrimoz-behandling i tilfælde af, at de giver infektioner. Tal med lægen, før du får nogen form for vaccine. Det anbefales, at børn så vidt som muligt får alle vaccinationer i overensstemmelse med gældende retningslinjer for deres alder, før behandlingen med Hyrimoz indledes. Hvis du har fået Hyrimoz, mens du var gravid, kan dit spædbarn have en højere risiko for at få en infektion i op til ca. fem måneder efter din sidste dosis under graviditeten. Det er vigtigt, at du fortæller barnets læge og andre sundhedspersoner, at du fik Hyrimoz under graviditeten, så de kan beslutte, hvornår dit spædbarn bør vaccineres.</li>\n                        </ul>\n                        <div class=\"paragraph\">\n                           <b>\n                              <br/>Hjertesvigt</b>\n                        </div>\n                        <ul>\n                           <li>Det er vigtigt at informere lægen, hvis du har eller har haft en alvorlig hjertesygdom. Hvis du har lettere hjertesvigt og bliver behandlet med Hyrimoz, skal status for dit hjertesvigt følges nøje af din læge. Hvis du udvikler nye eller får forværrede symptomer på hjertesvigt (f.eks. stakåndethed eller hævede fødder), skal du kontakte din læge øjeblikkeligt.</li>\n                        </ul>\n                        <div class=\"paragraph\">\n                           <b>\n                              <br/>Feber, blå mærker, blødning eller bleghed</b>\n                        </div>\n                        <ul>\n                           <li>Hos nogle patienter vil kroppen ikke producere tilstrækkeligt af de blodlegemer, som bekæmper infektioner eller hjælper med at stoppe blødninger. Hvis du får feber, som ikke vil forsvinde, blå mærker eller bløder meget let eller er meget bleg, skal du omgående henvende dig til din læge. Din læge kan eventuelt beslutte at afbryde behandlingen.</li>\n                        </ul>\n                        <div class=\"paragraph\">\n                           <b>\n                              <br/>Kræft</b>\n                        </div>\n                        <ul>\n                           <li>Der er set meget sjældne tilfælde af visse kræfttyper hos patienter, som tager adalimumab eller andre TNFα-hæmmere. Patienter med mere alvorlig reumatoid artrit, som har haft sygdommen i lang tid, kan have øget risiko i forhold til gennemsnittet for at få lymfomer og leukæmi (kræfttyper, som påvirker blodlegemer og knoglemarv). Når du tager Hyrimoz, kan risikoen for at få et lymfom, leukæmi eller andre former for kræft øges. I sjældne tilfælde er der set en alvorlig type af lymfom hos patienter, som tog adalimumab. Nogle af disse patienter blev også behandlet med lægemidlerne azathioprin eller mercaptopurin. Fortæl din læge, hvis du får lægemidlerne azathioprin eller mercaptopurin sammen med Hyrimoz.</li>\n                           <li>Derudover er der set tilfælde af ikke-melanom hudkræft hos patienter, der tager adalimumab. Hvis der kommer nye områder med beskadiget hud under eller efter behandlingen, eller hvis de nuværende beskadigede områder forandrer sig, skal du fortælle det til din læge.</li>\n                           <li>Der har været tilfælde af kræft, der er forskellig fra lymfom hos patienter med en specifik lungesygdom kaldet kronisk obstruktiv lungesygdom (KOL), der var i behandling med en anden TNFα-hæmmer. Hvis du har KOL, eller ryger meget, bør du diskutere med din læge, om behandling med en TNFα-hæmmer er passende for dig.</li>\n                        </ul>\n                        <div class=\"paragraph\">\n                           <b>\n                              <br/>Autoimmune sygdomme</b>\n                        </div>\n                        <ul>\n                           <li>I sjældne tilfælde kan behandling med Hyrimoz resultere i lupus-lignende syndrom. Fortæl din læge hvis der opstår symptomer såsom vedvarende uforklarligt udslæt, feber, ledsmerter eller træthed.</li>\n                        </ul>\n                        <h3>  Børn og unge </h3>\n                        <ul>\n                           <li>Giv ikke Hyrimoz til børn under 2 år med polyartikulær juvenil idiopatisk artrit.</li>\n                           <li>Giv ikke Hyrimoz til børn under 4 år med pædiatrisk plaque-psoriasis eller pædiatrisk colitis ulcerosa.</li>\n                           <li>Giv ikke Hyrimoz til børn under 6 år med pædiatrisk Crohns sygdom.</li>\n                           <li>Brug ikke 40 mg fyldt injektionssprøjte, hvis det anbefales at bruge andre doser end 40 mg.</li>\n                        </ul>\n                        <h3>  Brug af anden medicin sammen med Hyrimoz </h3>\n                        <div class=\"paragraph\">Fortæl altid lægen eller apotekspersonalet, hvis du bruger anden medicin for nylig har brugt anden medicin eller planlægger at bruge anden medicin.</div>\n                        <div class=\"paragraph\">\n                           <br/>Hyrimoz kan anvendes sammen med methotrexat eller visse sygdomsmodificerende antireumatiske lægemidler (sulfasalazin, hydroxychloroquin, leflunomid og guldpræparater til injektion), kortikosteroider eller smertemedicin, herunder non-steroide anti-inflammatoriske lægemidler (NSAIDs).</div>\n                        <div class=\"paragraph\">\n                           <br/>På grund af øget risiko for alvorlig infektion, må du ikke tage Hyrimoz sammen med medicin, der indeholder de aktive stoffer anakinra eller abatacept. Det anbefales ikke at kombinere adalimumab såvel som andre TNF-antagonister og anakira eller abatacept, grundet den mulige øgede risiko for infektion som for eksempel alvorlige infektioner og andre mulige farmakologiske interaktioner (lægemidlers påvirkning på hinanden). Hvis du har spørgsmål, skal du tale med din læge.</div>\n                        <h3>  Graviditet og amning </h3>\n                        <ul>\n                           <li>Du bør overveje brugen af passende prævention for at forhindre graviditet og fortsætte brugen mindst 5 måneder efter den sidste behandling med Hyrimoz.</li>\n                           <li>Hvis du er gravid, har mistanke om at du er gravid, eller planlægger at blive gravid, skal du spørge din læge til råds, før du tager dette lægemiddel.</li>\n                           <li>Hyrimoz bør kun anvendes under graviditeten, hvis det er tydeligvis nødvendigt.</li>\n                           <li>Der var ifølge et graviditetsstudie ikke højere risiko for misdannelser, når moderen havde fået adalimumab under graviditeten, ved sammenligning med mødre med samme sygdom, som ikke havde fået adalimumab.</li>\n                           <li>Hyrimoz kan anvendes under amning.</li>\n                           <li>Hvis du får Hyrimoz, mens du er gravid, kan dit spædbarn have en højere risiko for at få en infektion.</li>\n                           <li>Det er vigtigt, at du fortæller barnets læge og andre sundhedspersoner om din brug af Hyrimoz under graviditeten, før dit barn får nogen vaccinationer (for mere information om vacciner, se afsnittet &quot;Advarsler og forsigtighedsregler&quot;).</li>\n                        </ul>\n                        <h3>  Trafik- og arbejdssikkerhed </h3>\n                        <div class=\"paragraph\">Hyrimoz kan i mindre grad påvirke din evne til at føre motorkøretøj, cykle eller betjene maskiner. Du kan få synsforstyrrelser og en fornemmelse af, at rummet drejer rundt (svimmelhed), efter du har taget Hyrimoz.</div>\n                        <h3>  Hyrimoz indeholder natrium </h3>\n                        <div class=\"paragraph\">Denne medicin indeholder mindre end 1 mmol natrium (23 mg) pr. 0,8 ml dosis, dvs. den er i det væsentlige natriumfri.</div>\n                     </div>"
          }
        },
        {
          "title" : "3. Sådan skal du tage Hyrimoz",
          "code" : {
            "coding" : [{
              "system" : "https://spor.ema.europa.eu/v1/lists/200000029659/terms/",
              "code" : "200000029905"
            }]
          },
          "text" : {
            "status" : "additional",
            "div" : "<div xmlns=\"http://www.w3.org/1999/xhtml\">\n                        <a name=\"Section3\"/>\n                        <div>\u00a0</div>\n                        <h2>3. Sådan skal du tage Hyrimoz</h2>\n                        <div class=\"paragraph\">Tag altid lægemidlet nøjagtigt efter lægens eller apotekspersonalets anvisning. Er du i tvivl, så spørg lægen eller apotekspersonalet.</div>\n                        <div class=\"paragraph\">\n                           <br/>Hyrimoz fås som en 40 mg pen samt som 20 mg og 40 mg fyldte injektionssprøjter, så patienter kan administrere en fuld dosis på 20 mg eller 40 mg.</div>\n                        <div class=\"paragraph\">\u00a0</div>\n                        <table border=\"1\" cellpadding=\"4\" cellspacing=\"0\" width=\"100%\" style=\"border-collapse:collapse;\">\n                           <colgroup/>\n                           <tr>\n                              <td colspan=\"3\" style=\"width:33%;\" valign=\"top\" align=\"left\">\n                                 <div class=\"paragraph\">\n                                    <b>Reumatoid artrit, psoriasisartrit, ankyloserende spondylitis eller aksial spondyloartritis uden radiografiske tegn på ankyloserende spondylitis</b>\n                                 </div>\n                              </td>\n                           </tr>\n                           <tr>\n                              <td style=\"width:33%;\" valign=\"top\" align=\"left\">\n                                 <div class=\"paragraph\">\n                                    <b>Alder og kropsvægt</b>\n                                 </div>\n                              </td>\n                              <td style=\"width:33%;\" valign=\"top\" align=\"left\">\n                                 <div class=\"paragraph\">\n                                    <b>Hvor meget og hvor ofte skal det tages?</b>\n                                 </div>\n                              </td>\n                              <td style=\"width:33%;\" valign=\"top\" align=\"left\">\n                                 <div class=\"paragraph\">\n                                    <b>Bemærkninger</b>\n                                 </div>\n                              </td>\n                           </tr>\n                           <tr>\n                              <td style=\"width:33%;\" valign=\"top\" align=\"left\">\n                                 <div class=\"paragraph\">Voksne</div>\n                              </td>\n                              <td style=\"width:33%;\" valign=\"top\" align=\"left\">\n                                 <div class=\"paragraph\">40 mg hver anden uge som en enkelt dosis</div>\n                              </td>\n                              <td style=\"width:33%;\" valign=\"top\" align=\"left\">\n                                 <div class=\"paragraph\">Ved reumatoid artrit fortsættes methotrexat mens Hyrimoz bruges. Hvis din læge beslutter, at methotrexat ikke er passende, kan Hyrimoz gives alene.</div>\n                                 <div class=\"paragraph\">\n                                    <br/>Hvis du har reumatoid artrit, og du ikke får methotrexat sammen med din Hyrimoz-behandling, kan lægen beslutte at give dig 40 mg Hyrimoz hver uge eller 80 mg hver anden uge.</div>\n                              </td>\n                           </tr>\n                        </table>\n                        <div class=\"paragraph\">\u00a0</div>\n                        <table border=\"1\" cellpadding=\"4\" cellspacing=\"0\" width=\"100%\" style=\"border-collapse:collapse;\">\n                           <colgroup/>\n                           <tr>\n                              <td colspan=\"3\" style=\"width:33%;\" valign=\"top\" align=\"left\">\n                                 <div class=\"paragraph\">\n                                    <b>Polyartikulær juvenil idiopatisk artrit</b>\n                                 </div>\n                              </td>\n                           </tr>\n                           <tr>\n                              <td style=\"width:33%;\" valign=\"top\" align=\"left\">\n                                 <div class=\"paragraph\">\n                                    <b>Alder og kropsvægt</b>\n                                 </div>\n                              </td>\n                              <td style=\"width:33%;\" valign=\"top\" align=\"left\">\n                                 <div class=\"paragraph\">\n                                    <b>Hvor meget og hvor ofte skal det tages?</b>\n                                 </div>\n                              </td>\n                              <td style=\"width:33%;\" valign=\"top\" align=\"left\">\n                                 <div class=\"paragraph\">\n                                    <b>Bemærkninger</b>\n                                 </div>\n                              </td>\n                           </tr>\n                           <tr>\n                              <td style=\"width:33%;\" valign=\"top\" align=\"left\">\n                                 <div class=\"paragraph\">Børn, unge og voksne fra 2 år, som vejer 30 kg eller mere</div>\n                              </td>\n                              <td style=\"width:33%;\" valign=\"top\" align=\"left\">\n                                 <div class=\"paragraph\">40 mg hver anden uge</div>\n                              </td>\n                              <td style=\"width:33%;\" valign=\"top\" align=\"left\">\n                                 <div class=\"paragraph\">Ikke relevant</div>\n                              </td>\n                           </tr>\n                           <tr>\n                              <td style=\"width:33%;\" valign=\"top\" align=\"left\">\n                                 <div class=\"paragraph\">Børn, unge og voksne fra 2 år, som vejer 10 kg til under 30 kg</div>\n                              </td>\n                              <td style=\"width:33%;\" valign=\"top\" align=\"left\">\n                                 <div class=\"paragraph\">20 mg hver anden uge</div>\n                              </td>\n                              <td style=\"width:33%;\" valign=\"top\" align=\"left\">\n                                 <div class=\"paragraph\">Ikke relevant</div>\n                              </td>\n                           </tr>\n                        </table>\n                        <div class=\"paragraph\">\u00a0</div>\n                        <table border=\"1\" cellpadding=\"4\" cellspacing=\"0\" width=\"100%\" style=\"border-collapse:collapse;\">\n                           <colgroup/>\n                           <tr>\n                              <td colspan=\"3\" style=\"width:33%;\" valign=\"top\" align=\"left\">\n                                 <div class=\"paragraph\">\n                                    <b>Entesopatirelateret artrit</b>\n                                 </div>\n                              </td>\n                           </tr>\n                           <tr>\n                              <td style=\"width:33%;\" valign=\"top\" align=\"left\">\n                                 <div class=\"paragraph\">\n                                    <b>Alder og kropsvægt</b>\n                                 </div>\n                              </td>\n                              <td style=\"width:33%;\" valign=\"top\" align=\"left\">\n                                 <div class=\"paragraph\">\n                                    <b>Hvor meget og hvor ofte skal det tages?</b>\n                                 </div>\n                              </td>\n                              <td style=\"width:33%;\" valign=\"top\" align=\"left\">\n                                 <div class=\"paragraph\">\n                                    <b>Bemærkninger</b>\n                                 </div>\n                              </td>\n                           </tr>\n                           <tr>\n                              <td style=\"width:33%;\" valign=\"top\" align=\"left\">\n                                 <div class=\"paragraph\">Børn, unge og voksne fra 6 år, som vejer 30 kg eller mere</div>\n                              </td>\n                              <td style=\"width:33%;\" valign=\"top\" align=\"left\">\n                                 <div class=\"paragraph\">40 mg hver anden uge</div>\n                              </td>\n                              <td style=\"width:33%;\" valign=\"top\" align=\"left\">\n                                 <div class=\"paragraph\">Ikke relevant</div>\n                              </td>\n                           </tr>\n                           <tr>\n                              <td style=\"width:33%;\" valign=\"top\" align=\"left\">\n                                 <div class=\"paragraph\">Børn, unge og voksne fra 6 år, som vejer 15 kg til under 30 kg</div>\n                              </td>\n                              <td style=\"width:33%;\" valign=\"top\" align=\"left\">\n                                 <div class=\"paragraph\">20 mg hver anden uge</div>\n                              </td>\n                              <td style=\"width:33%;\" valign=\"top\" align=\"left\">\n                                 <div class=\"paragraph\">Ikke relevant</div>\n                              </td>\n                           </tr>\n                        </table>\n                        <div class=\"paragraph\">\u00a0</div>\n                        <table border=\"1\" cellpadding=\"4\" cellspacing=\"0\" width=\"100%\" style=\"border-collapse:collapse;\">\n                           <colgroup/>\n                           <tr>\n                              <td colspan=\"3\" style=\"width:33%;\" valign=\"top\" align=\"left\">\n                                 <div class=\"paragraph\">\n                                    <b>Psoriasis</b>\n                                 </div>\n                              </td>\n                           </tr>\n                           <tr>\n                              <td style=\"width:33%;\" valign=\"top\" align=\"left\">\n                                 <div class=\"paragraph\">\n                                    <b>Alder og kropsvægt</b>\n                                 </div>\n                              </td>\n                              <td style=\"width:33%;\" valign=\"top\" align=\"left\">\n                                 <div class=\"paragraph\">\n                                    <b>Hvor meget og hvor ofte skal det tages?</b>\n                                 </div>\n                              </td>\n                              <td style=\"width:33%;\" valign=\"top\" align=\"left\">\n                                 <div class=\"paragraph\">\n                                    <b>Bemærkninger</b>\n                                 </div>\n                              </td>\n                           </tr>\n                           <tr>\n                              <td style=\"width:33%;\" valign=\"top\" align=\"left\">\n                                 <div class=\"paragraph\">Voksne</div>\n                              </td>\n                              <td style=\"width:33%;\" valign=\"top\" align=\"left\">\n                                 <div class=\"paragraph\">Første dosis er 80 mg (som to 40 mg injektioner på én dag), efterfulgt af 40 mg givet hver anden uge med begyndelse én uge efter den første dosis.</div>\n                              </td>\n                              <td style=\"width:33%;\" valign=\"top\" align=\"left\">\n                                 <div class=\"paragraph\">Du skal fortsætte med at injicere Hyrimoz så længe, som din læge har fortalt dig. Hvis denne dosis ikke virker godt nok, kan din læge øge dosis til 40 mg hver uge eller 80 mg hver anden uge.</div>\n                              </td>\n                           </tr>\n                        </table>\n                        <div class=\"paragraph\">\u00a0</div>\n                        <table border=\"1\" cellpadding=\"4\" cellspacing=\"0\" width=\"100%\" style=\"border-collapse:collapse;\">\n                           <colgroup/>\n                           <tr>\n                              <td colspan=\"3\" style=\"width:33%;\" valign=\"top\" align=\"left\">\n                                 <div class=\"paragraph\">\n                                    <b>Plaque-psoriasis hos børn</b>\n                                 </div>\n                              </td>\n                           </tr>\n                           <tr>\n                              <td style=\"width:33%;\" valign=\"top\" align=\"left\">\n                                 <div class=\"paragraph\">\n                                    <b>Alder og kropsvægt</b>\n                                 </div>\n                              </td>\n                              <td style=\"width:33%;\" valign=\"top\" align=\"left\">\n                                 <div class=\"paragraph\">\n                                    <b>Hvor meget og hvor ofte skal det tages?</b>\n                                 </div>\n                              </td>\n                              <td style=\"width:33%;\" valign=\"top\" align=\"left\">\n                                 <div class=\"paragraph\">\n                                    <b>Bemærkninger</b>\n                                 </div>\n                              </td>\n                           </tr>\n                           <tr>\n                              <td style=\"width:33%;\" valign=\"top\" align=\"left\">\n                                 <div class=\"paragraph\">Børn og unge fra 4 til 17 år, som vejer 30 kg eller mere</div>\n                              </td>\n                              <td style=\"width:33%;\" valign=\"top\" align=\"left\">\n                                 <div class=\"paragraph\">Første dosis er 40 mg, efterfulgt af 40 mg én uge senere.<br/>\n                                    <br/>Derefter er den sædvanlige dosis 40 mg hver anden uge.</div>\n                              </td>\n                              <td style=\"width:33%;\" valign=\"top\" align=\"left\">\n                                 <div class=\"paragraph\">Ikke relevant</div>\n                              </td>\n                           </tr>\n                           <tr>\n                              <td style=\"width:33%;\" valign=\"top\" align=\"left\">\n                                 <div class=\"paragraph\">Børn og unge fra 4 til 17 år, som vejer 15 kg til under 30 kg</div>\n                              </td>\n                              <td style=\"width:33%;\" valign=\"top\" align=\"left\">\n                                 <div class=\"paragraph\">Første dosis er 20 mg, efterfulgt af 20 mg én uge senere.<br/>\n                                    <br/>Derefter er den sædvanlige dosis 20 mg hver anden uge.</div>\n                              </td>\n                              <td style=\"width:33%;\" valign=\"top\" align=\"left\">\n                                 <div class=\"paragraph\">Ikke relevant</div>\n                              </td>\n                           </tr>\n                        </table>\n                        <div class=\"paragraph\">\u00a0</div>\n                        <table border=\"1\" cellpadding=\"4\" cellspacing=\"0\" width=\"100%\" style=\"border-collapse:collapse;\">\n                           <colgroup/>\n                           <tr>\n                              <td colspan=\"3\" style=\"width:33%;\" valign=\"top\" align=\"left\">\n                                 <div class=\"paragraph\">\n                                    <b>Hidradenitis suppurativa</b>\n                                 </div>\n                              </td>\n                           </tr>\n                           <tr>\n                              <td style=\"width:33%;\" valign=\"top\" align=\"left\">\n                                 <div class=\"paragraph\">\n                                    <b>Alder og kropsvægt</b>\n                                 </div>\n                              </td>\n                              <td style=\"width:33%;\" valign=\"top\" align=\"left\">\n                                 <div class=\"paragraph\">\n                                    <b>Hvor meget og hvor ofte skal det tages?</b>\n                                 </div>\n                              </td>\n                              <td style=\"width:33%;\" valign=\"top\" align=\"left\">\n                                 <div class=\"paragraph\">\n                                    <b>Bemærkninger</b>\n                                 </div>\n                              </td>\n                           </tr>\n                           <tr>\n                              <td style=\"width:33%;\" valign=\"top\" align=\"left\">\n                                 <div class=\"paragraph\">Voksne</div>\n                              </td>\n                              <td style=\"width:33%;\" valign=\"top\" align=\"left\">\n                                 <div class=\"paragraph\">Første dosis er 160 mg (som fire 40 mg injektioner på én dag eller to 40 mg injektioner pr. dag i to fortløbende dage), efterfulgt af en 80 mg dosis (som to 40 mg injektioner på samme dag) to uger senere.</div>\n                                 <div class=\"paragraph\">\n                                    <br/>Efter yderligere to uger fortsættes med en dosis på 40 mg hver uge eller 80 mg hver anden uge som ordineret af din læge.</div>\n                              </td>\n                              <td style=\"width:33%;\" valign=\"top\" align=\"left\">\n                                 <div class=\"paragraph\">Det anbefales, at du dagligt bruger et antiseptisk vaskemiddel på de berørte områder.</div>\n                              </td>\n                           </tr>\n                           <tr>\n                              <td style=\"width:33%;\" valign=\"top\" align=\"left\">\n                                 <div class=\"paragraph\">Unge fra 12 til 17 år, der vejer 30 kg eller mere</div>\n                              </td>\n                              <td style=\"width:33%;\" valign=\"top\" align=\"left\">\n                                 <div class=\"paragraph\">Første dosis er 80 mg (som to 40 mg injektioner på én dag), efterfulgt af 40 mg hver anden uge med begyndelse én uge senere.</div>\n                              </td>\n                              <td style=\"width:33%;\" valign=\"top\" align=\"left\">\n                                 <div class=\"paragraph\">Hvis denne dosis ikke virker godt nok, kan din læge øge dosis til 40 mg hver uge eller 80 mg hver anden uge.</div>\n                                 <div class=\"paragraph\">\n                                    <br/>Det anbefales, at du dagligt bruger et antiseptisk vaskemiddel på de berørte områder.</div>\n                              </td>\n                           </tr>\n                        </table>\n                        <div class=\"paragraph\">\u00a0</div>\n                        <table border=\"1\" cellpadding=\"4\" cellspacing=\"0\" width=\"100%\" style=\"border-collapse:collapse;\">\n                           <colgroup/>\n                           <tr>\n                              <td colspan=\"3\" style=\"width:33%;\" valign=\"top\" align=\"left\">\n                                 <div class=\"paragraph\">\n                                    <b>Crohns sygdom</b>\n                                 </div>\n                              </td>\n                           </tr>\n                           <tr>\n                              <td style=\"width:33%;\" valign=\"top\" align=\"left\">\n                                 <div class=\"paragraph\">\n                                    <b>Alder og kropsvægt</b>\n                                 </div>\n                              </td>\n                              <td style=\"width:33%;\" valign=\"top\" align=\"left\">\n                                 <div class=\"paragraph\">\n                                    <b>Hvor meget og hvor ofte skal det tages?</b>\n                                 </div>\n                              </td>\n                              <td style=\"width:33%;\" valign=\"top\" align=\"left\">\n                                 <div class=\"paragraph\">\n                                    <b>Bemærkninger</b>\n                                 </div>\n                              </td>\n                           </tr>\n                           <tr>\n                              <td style=\"width:33%;\" valign=\"top\" align=\"left\">\n                                 <div class=\"paragraph\">Voksne</div>\n                              </td>\n                              <td style=\"width:33%;\" valign=\"top\" align=\"left\">\n                                 <div class=\"paragraph\">Første dosis er 80 mg (som to 40 mg injektioner på én dag), efterfulgt af 40 mg hver anden uge med begyndelse to uger senere.</div>\n                                 <div class=\"paragraph\">\n                                    <br/>Hvis der er brug for et hurtigere respons, kan lægen ordinere en første dosis på 160 mg (som fire 40 mg injektioner på én dag eller to 40 mg injektioner pr. dag i to fortløbende dage), efterfulgt af 80 mg (som to 40 mg injektioner på én dag) to uger senere.</div>\n                                 <div class=\"paragraph\">\n                                    <br/>Derefter er den sædvanlige dosis 40 mg hver anden uge.</div>\n                              </td>\n                              <td style=\"width:33%;\" valign=\"top\" align=\"left\">\n                                 <div class=\"paragraph\">Hvis denne dosis ikke virker godt nok, kan din læge øge dosis til 40 mg hver uge eller 80 mg hver anden uge.</div>\n                              </td>\n                           </tr>\n                        </table>\n                        <div class=\"paragraph\">\u00a0</div>\n                        <table border=\"1\" cellpadding=\"4\" cellspacing=\"0\" width=\"100%\" style=\"border-collapse:collapse;\">\n                           <colgroup/>\n                           <tr>\n                              <td colspan=\"3\" style=\"width:33%;\" valign=\"top\" align=\"left\">\n                                 <div class=\"paragraph\">\n                                    <b>Crohns sygdom hos børn</b>\n                                 </div>\n                              </td>\n                           </tr>\n                           <tr>\n                              <td style=\"width:33%;\" valign=\"top\" align=\"left\">\n                                 <div class=\"paragraph\">\n                                    <b>Alder og kropsvægt</b>\n                                 </div>\n                              </td>\n                              <td style=\"width:33%;\" valign=\"top\" align=\"left\">\n                                 <div class=\"paragraph\">\n                                    <b>Hvor meget og hvor ofte skal det tages?</b>\n                                 </div>\n                              </td>\n                              <td style=\"width:33%;\" valign=\"top\" align=\"left\">\n                                 <div class=\"paragraph\">\n                                    <b>Bemærkninger</b>\n                                 </div>\n                              </td>\n                           </tr>\n                           <tr>\n                              <td style=\"width:33%;\" valign=\"top\" align=\"left\">\n                                 <div class=\"paragraph\">Børn og unge fra 6 til 17 år, som vejer 40 kg eller mere</div>\n                              </td>\n                              <td style=\"width:33%;\" valign=\"top\" align=\"left\">\n                                 <div class=\"paragraph\">Første dosis er 80 mg (som to 40 mg injektioner på én dag), efterfulgt af 40 mg hver anden uge med begyndelse to uger senere.</div>\n                                 <div class=\"paragraph\">\n                                    <br/>Hvis der er brug for et hurtigere respons, kan lægen ordinere en første dosis på 160 mg (som fire 40 mg injektioner på én dag eller to 40 mg injektioner pr. dag i to fortløbende dage), efterfulgt af 80 mg (som to 40 mg injektioner på én dag) to uger senere.</div>\n                                 <div class=\"paragraph\">\n                                    <br/>Derefter er den sædvanlige dosis 40 mg hver anden uge.</div>\n                              </td>\n                              <td style=\"width:33%;\" valign=\"top\" align=\"left\">\n                                 <div class=\"paragraph\">Hvis denne dosis ikke virker godt nok, kan dit barns læge øge dosis til 40 mg hver uge eller 80 mg hver anden uge.</div>\n                              </td>\n                           </tr>\n                           <tr>\n                              <td style=\"width:33%;\" valign=\"top\" align=\"left\">\n                                 <div class=\"paragraph\">Børn og unge fra 6 til 17 år, som vejer under 40 kg</div>\n                              </td>\n                              <td style=\"width:33%;\" valign=\"top\" align=\"left\">\n                                 <div class=\"paragraph\">Første dosis er 40 mg, efterfulgt af 20 mg hver anden uge med begyndelse to uger senere.</div>\n                                 <div class=\"paragraph\">\n                                    <br/>Hvis der er brug for et hurtigere respons, kan lægen ordinere en første dosis på 80 mg (som to 40 mg injektioner på én dag), efterfulgt af 40 mg to uger senere.</div>\n                                 <div class=\"paragraph\">\n                                    <br/>Derefter er den sædvanlige dosis 20 mg hver anden uge.</div>\n                              </td>\n                              <td style=\"width:33%;\" valign=\"top\" align=\"left\">\n                                 <div class=\"paragraph\">Hvis denne dosis ikke virker godt nok, kan dit barns læge øge hyppigheden af dosis til 20 mg hver uge.</div>\n                              </td>\n                           </tr>\n                        </table>\n                        <div class=\"paragraph\">\u00a0</div>\n                        <table border=\"1\" cellpadding=\"4\" cellspacing=\"0\" width=\"100%\" style=\"border-collapse:collapse;\">\n                           <colgroup/>\n                           <tr>\n                              <td colspan=\"3\" style=\"width:33%;\" valign=\"top\" align=\"left\">\n                                 <div class=\"paragraph\">\n                                    <b>Colitis ulcerosa</b>\n                                 </div>\n                              </td>\n                           </tr>\n                           <tr>\n                              <td style=\"width:33%;\" valign=\"top\" align=\"left\">\n                                 <div class=\"paragraph\">\n                                    <b>Alder og kropsvægt</b>\n                                 </div>\n                              </td>\n                              <td style=\"width:33%;\" valign=\"top\" align=\"left\">\n                                 <div class=\"paragraph\">\n                                    <b>Hvor meget og hvor ofte skal det tages?</b>\n                                 </div>\n                              </td>\n                              <td style=\"width:33%;\" valign=\"top\" align=\"left\">\n                                 <div class=\"paragraph\">\n                                    <b>Bemærkninger</b>\n                                 </div>\n                              </td>\n                           </tr>\n                           <tr>\n                              <td style=\"width:33%;\" valign=\"top\" align=\"left\">\n                                 <div class=\"paragraph\">Voksne</div>\n                              </td>\n                              <td style=\"width:33%;\" valign=\"top\" align=\"left\">\n                                 <div class=\"paragraph\">Første dosis er 160 mg (som fire 40 mg injektioner på én dag eller som to 40 mg injektioner pr. dag i to fortløbende dage), efterfulgt af 80 mg (som to 40 mg injektioner på én dag) to uger senere.</div>\n                                 <div class=\"paragraph\">\n                                    <br/>Derefter er den sædvanlige dosis 40 mg hver anden uge.</div>\n                              </td>\n                              <td style=\"width:33%;\" valign=\"top\" align=\"left\">\n                                 <div class=\"paragraph\">Hvis denne dosis ikke virker godt nok, kan din læge øge dosis til 40 mg hver uge eller 80 mg hver anden uge.</div>\n                              </td>\n                           </tr>\n                        </table>\n                        <div class=\"paragraph\">\u00a0</div>\n                        <table border=\"1\" cellpadding=\"4\" cellspacing=\"0\" width=\"100%\" style=\"border-collapse:collapse;\">\n                           <colgroup/>\n                           <tr>\n                              <td colspan=\"3\" style=\"width:33%;\" valign=\"top\" align=\"left\">\n                                 <div class=\"paragraph\">\n                                    <b>Ikke-infektiøs uveitis</b>\n                                 </div>\n                              </td>\n                           </tr>\n                           <tr>\n                              <td style=\"width:33%;\" valign=\"top\" align=\"left\">\n                                 <div class=\"paragraph\">\n                                    <b>Alder og kropsvægt</b>\n                                 </div>\n                              </td>\n                              <td style=\"width:33%;\" valign=\"top\" align=\"left\">\n                                 <div class=\"paragraph\">\n                                    <b>Hvor meget og hvor ofte skal det tages?</b>\n                                 </div>\n                              </td>\n                              <td style=\"width:33%;\" valign=\"top\" align=\"left\">\n                                 <div class=\"paragraph\">\n                                    <b>Bemærkninger</b>\n                                 </div>\n                              </td>\n                           </tr>\n                           <tr>\n                              <td style=\"width:33%;\" valign=\"top\" align=\"left\">\n                                 <div class=\"paragraph\">Voksne</div>\n                              </td>\n                              <td style=\"width:33%;\" valign=\"top\" align=\"left\">\n                                 <div class=\"paragraph\">Første dosis er 80 mg (som to 40 mg injektioner), efterfulgt af 40 mg hver anden uge med begyndelse én uge efter den første dosis.</div>\n                              </td>\n                              <td style=\"width:33%;\" valign=\"top\" align=\"left\">\n                                 <div class=\"paragraph\">Ved ikke-infektiøs uveitis kan behandling med kortikosteroider eller anden medicin, der påvirker immunsystemet, fortsættes under behandling med Hyrimoz. Hyrimoz kan også gives alene.</div>\n                                 <div class=\"paragraph\">\n                                    <br/>Du skal fortsætte med at injicere Hyrimoz så længe, som din læge har fortalt dig.</div>\n                              </td>\n                           </tr>\n                           <tr>\n                              <td style=\"width:33%;\" valign=\"top\" align=\"left\">\n                                 <div class=\"paragraph\">Børn og unge fra 2 år, som vejer 30 kg eller mere</div>\n                              </td>\n                              <td style=\"width:33%;\" valign=\"top\" align=\"left\">\n                                 <div class=\"paragraph\">40 mg hver anden uge sammen med methotrexat</div>\n                              </td>\n                              <td style=\"width:33%;\" valign=\"top\" align=\"left\">\n                                 <div class=\"paragraph\">Lægen kan også ordinere en første dosis på 80 mg, som kan gives én uge før start af den sædvanlige dosis.</div>\n                              </td>\n                           </tr>\n                           <tr>\n                              <td style=\"width:33%;\" valign=\"top\" align=\"left\">\n                                 <div class=\"paragraph\">Børn og unge fra 2 år, som vejer under 30 kg</div>\n                              </td>\n                              <td style=\"width:33%;\" valign=\"top\" align=\"left\">\n                                 <div class=\"paragraph\">20 mg hver anden uge sammen med methotrexat</div>\n                              </td>\n                              <td style=\"width:33%;\" valign=\"top\" align=\"left\">\n                                 <div class=\"paragraph\">Lægen kan også ordinere en første dosis på 40 mg, som kan gives én uge før start af den sædvanlige dosis.</div>\n                              </td>\n                           </tr>\n                        </table>\n                        <div class=\"paragraph\">\u00a0</div>\n                        <h3>  Metode og indgivelsesvej  </h3>\n                        <div class=\"paragraph\">Hyrimoz indgives ved injektion under huden (subkutan injektion).</div>\n                        <div class=\"paragraph\">\n                           <br/>Detaljeret vejledning om, hvordan Hyrimoz injiceres, gives i <a href=\"#Section0\" title=\"Anchor link til afsnit - punkt 7\">punkt 7</a> ”<b>Brugsvejledning</b>”.</div>\n                        <h3>  Hvis du har taget for meget Hyrimoz  </h3>\n                        <div class=\"paragraph\">Hvis du ved en fejltagelse injicerer Hyrimoz hyppigere end forskrevet, skal du kontakte lægen eller apotekspersonalet og forklare, at du har taget mere medicin end nødvendigt. Tag altid medicinens ydre karton med, også selvom den er tom.</div>\n                        <h3>  Hvis du har glemt at tage Hyrimoz  </h3>\n                        <div class=\"paragraph\">Hvis du glemmer at give dig selv en injektion, skal du injicere den næste dosis af Hyrimoz, så snart du kommer i tanke om det. Fortsæt dernæst med at injicere næste dosis som planlagt på den oprindeligt fastlagte dag, som om du ikke havde glemt en dosis.</div>\n                        <h3>  Hvis du holder op med at tage Hyrimoz  </h3>\n                        <div class=\"paragraph\">Beslutningen om at stoppe med at bruge Hyrimoz skal diskuteres med din læge. Dine symptomer kan komme igen efter ophør af behandlingen.</div>\n                        <div class=\"paragraph\">\n                           <br/>Spørg lægen eller apotekspersonalet, hvis der er noget, du er i tvivl om.</div>\n                     </div>"
          }
        },
        {
          "title" : "4. Bivirkninger",
          "code" : {
            "coding" : [{
              "system" : "https://spor.ema.europa.eu/v1/lists/200000029659/terms/",
              "code" : "200000029910"
            }]
          },
          "text" : {
            "status" : "additional",
            "div" : "<div xmlns=\"http://www.w3.org/1999/xhtml\">\n                        <a name=\"Section4\"/>\n                        <div>\u00a0</div>\n                        <h2>4. Bivirkninger</h2>\n                        <div class=\"paragraph\">Dette lægemiddel kan som alle andre lægemidler give bivirkninger, men ikke alle får bivirkninger. De fleste bivirkninger er af let til moderat grad. Der kan dog forekomme mere alvorlige bivirkninger, som kræver behandling. Bivirkninger kan forekomme op til 4 måneder eller mere efter den sidste</div>\n                        <div class=\"paragraph\">Hyrimoz-injektion.</div>\n                        <div class=\"paragraph\">\n                           <br/>\n                           <b>Søg straks lægehjælp</b>, hvis du bemærker følgende tegn på en allergisk reaktion eller hjertesvigt:</div>\n                        <ul>\n                           <li>alvorligt udslæt eller nældefeber </li>\n                           <li>hævelser i ansigt, hænder eller fødder </li>\n                           <li>besvær med at trække vejret eller synke </li>\n                           <li>stakåndethed ved fysisk anstrengelse eller når du ligger ned, eller hævede fødder. </li>\n                        </ul>\n                        <div class=\"paragraph\">\n                           <br/>\n                           <b>Kontakt lægen så hurtigt som muligt</b>, hvis du får et eller flere af følgende symptomer:</div>\n                        <ul>\n                           <li>tegn og symptomer på infektion, såsom feber, kvalme, sår, tandproblemer eller smerter ved vandladning, følelse af svaghed eller træthed eller hoste; </li>\n                           <li>symptomer på nerveproblemer som snurren og prikken, følelsesløshed, dobbeltsyn eller svaghed i arme og ben; </li>\n                           <li>tegn på hudkræft som en bule eller åbent sår, som ikke vil hele; </li>\n                           <li>tegn og symptomer, som kan tyde på blodsygdomme såsom vedvarende feber, blå mærker, blødning, bleghed. </li>\n                        </ul>\n                        <div class=\"paragraph\">\n                           <br/>Følgende bivirkninger er observeret ved brug af adalimumab:</div>\n                        <div class=\"paragraph\">\n                           <br/>\n                           <b>Meget almindelige </b>(kan påvirke flere end 1 ud af 10 personer)</div>\n                        <ul>\n                           <li>reaktioner ved injektionsstedet (herunder smerter, hævelse, rødme eller kløe) </li>\n                           <li>luftvejsinfektioner (inklusive forkølelse, løbende næse, bihulebetændelse, lungebetændelse) </li>\n                           <li>hovedpine </li>\n                           <li>mavesmerter </li>\n                           <li>kvalme og opkastning </li>\n                           <li>udslæt </li>\n                           <li>muskelsmerter. </li>\n                        </ul>\n                        <div class=\"paragraph\">\n                           <br/>\n                           <b>Almindelige </b>(kan påvirke op til 1 ud af 10 personer)</div>\n                        <ul>\n                           <li>alvorlige infektioner (inklusive blodforgiftning og influenza) </li>\n                           <li>tarminfektioner (inklusive betændelse i mave og tarm) </li>\n                           <li>hudinfektioner (inklusive bindevævsbetændelse og helvedesild) </li>\n                           <li>øreinfektioner </li>\n                           <li>infektioner i munden (inklusive tandinfektioner og forkølelsessår) </li>\n                           <li>infektioner i kønsvejene </li>\n                           <li>urinvejsinfektion </li>\n                           <li>svampeinfektioner </li>\n                           <li>ledinfektioner </li>\n                           <li>godartede svulster </li>\n                           <li>hudkræft </li>\n                           <li>allergiske reaktioner (inklusive sæsonbestemt allergi) </li>\n                           <li>dehydrering (væskemangel) </li>\n                           <li>humørsvingninger (inklusive depression) </li>\n                           <li>angst </li>\n                           <li>søvnbesvær </li>\n                           <li>følelsesforstyrrelser såsom snurren, prikken eller følelsesløshed </li>\n                           <li>migræne </li>\n                           <li>symptomer på nerverodskompression (inklusive smerter i den nederste del af ryggen og bensmerter) </li>\n                           <li>synsforstyrrelser </li>\n                           <li>betændelse i øjet </li>\n                           <li>betændelse i øjenlåget og hævede øjne </li>\n                           <li>vertigo (fornemmelse af at snurre rundt) </li>\n                           <li>fornemmelse af hurtige hjerteslag </li>\n                           <li>højt blodtryk </li>\n                           <li>rødme </li>\n                           <li>blodansamling </li>\n                           <li>hoste </li>\n                           <li>astma </li>\n                           <li>kortåndethed </li>\n                           <li>blødning i mave-tarm-kanalen </li>\n                           <li>sure opstød (fordøjelsesbesvær, oppustethed, halsbrand) </li>\n                           <li>syrereflukssygdom </li>\n                           <li>Sjøgrens syndrom (inklusive tørre øjne og tør mund) </li>\n                           <li>kløe </li>\n                           <li>kløende udslæt </li>\n                           <li>blå mærker </li>\n                           <li>inflammation i huden (såsom eksem) </li>\n                           <li>fingernegle og tånegle knækker </li>\n                           <li>øget svedtendens </li>\n                           <li>hårtab </li>\n                           <li>nye udbrud eller forværring af psoriasis </li>\n                           <li>muskelspasmer </li>\n                           <li>blod i urinen </li>\n                           <li>nyreproblemer </li>\n                           <li>brystsmerter </li>\n                           <li>ødem (væskeophobning i kroppen, som får det påvirkede væv til at hæve) </li>\n                           <li>feber </li>\n                           <li>nedsat antal blodplader med forøget risiko for blødning eller blå mærker </li>\n                           <li>forringet sårheling. </li>\n                        </ul>\n                        <div class=\"paragraph\">\n                           <br/>\n                           <b>Ikke almindelige </b>(kan påvirke op til 1 ud af 100 personer)</div>\n                        <ul>\n                           <li>usædvanlige infektioner (som inkluderer tuberkulose og andre infektioner), som forekommer, når modstandskraften mod sygdom er nedsat </li>\n                           <li>neurologiske infektioner (inklusive viral meningitis) </li>\n                           <li>øjeninfektioner </li>\n                           <li>bakterieinfektioner </li>\n                           <li>irritation og infektion i tyktarmen (diverticulitis) </li>\n                           <li>kræft inklusive kræft, der rammer lymfesystemet (lymfom) og modermærkekræft </li>\n                           <li>sygdomme i immunsystemet, som kan påvirke lungerne, huden og lymfeknuderne (viser sig oftest som en sygdom, der kaldes sarkoidose) </li>\n                           <li>vaskulitis (betændelse i blodkar) </li>\n                           <li>rysten </li>\n                           <li>neuropati (nerveskade) </li>\n                           <li>slagtilfælde </li>\n                           <li>dobbeltsyn </li>\n                           <li>høretab, summen for ørerne </li>\n                           <li>fornemmelse af uregelmæssige hjerteslag såsom oversprungne slag </li>\n                           <li>hjerteproblemer, som kan forårsage kortåndethed og hævede ankler </li>\n                           <li>hjertetilfælde </li>\n                           <li>sæklignende udposning på væggen af en større pulsåre (aneurisme), betændelse og blodprop i en blodåre, tilstopning af et blodkar </li>\n                           <li>lungesygdom, som forårsager kortåndethed (inklusive inflammation) </li>\n                           <li>blodprop i lungerne (lungeemboli) </li>\n                           <li>unormal ophobning af væske mellem lungehinderne (pleuraeffusion) </li>\n                           <li>inflammation i bugspytkirtlen, som kan give alvorlige smerter i maven og ryggen </li>\n                           <li>synkebesvær </li>\n                           <li>hævelse i ansigtet </li>\n                           <li>inflammation i galdeblæren, galdesten </li>\n                           <li>fedtlever (ophobning af fedt i levercellerne) </li>\n                           <li>nattesved </li>\n                           <li>ar </li>\n                           <li>unormal muskelnedbrydning </li>\n                           <li>systemisk lupus erythematosus (en immunforstyrrelse, der indbefatter betændelse i huden, hjertet, lungerne, leddene og andre organsystemer) </li>\n                           <li>søvnafbrydelser </li>\n                           <li>impotens </li>\n                           <li>inflammationer. </li>\n                        </ul>\n                        <div class=\"paragraph\">\n                           <br/>\n                           <b>Sjældne </b>(kan påvirke op til 1 ud af 1.000 personer)</div>\n                        <ul>\n                           <li>leukæmi (kræft, som påvirker blod og knoglemarv) </li>\n                           <li>alvorlig allergisk reaktion med shock </li>\n                           <li>dissemineret sklerose </li>\n                           <li>nerveforstyrrelser (såsom inflammation (betændelse) i synsnerven og Guillain-Barré syndrom, en sygdom, som kan forårsage muskelsvaghed, unormal følesans, prikken i arme og overkrop) </li>\n                           <li>hjertestop </li>\n                           <li>lungefibrose (dannelse af arvæv i lungerne) </li>\n                           <li>perforering af tarmen (hul i tarmvæggen) </li>\n                           <li>hepatit (leverbetændelse) </li>\n                           <li>genopblussen af hepatitis B-infektion </li>\n                           <li>autoimmun hepatit (leverbetændelse forårsaget af kroppens eget immunsystem) </li>\n                           <li>inflammation/betændelse i hudens blodkar (kutan vaskulitis) </li>\n                           <li>Stevens-Johnsons syndrom (livstruende reaktion med influenza-lignende symptomer og udslæt med blærer) </li>\n                           <li>ødem (hævelse) i ansigtet forbundet med allergiske reaktioner </li>\n                           <li>betændelseslignende hududslæt (erythema multiforme) </li>\n                           <li>lupus-lignende syndrom </li>\n                           <li>angioødem (lokal hævelse af huden) </li>\n                           <li>lichenoid hudreaktion (kløende rødligt-lilla hududslæt). </li>\n                        </ul>\n                        <div class=\"paragraph\">\n                           <br/>\n                           <b>Ikke kendt </b>(hyppigheden kan ikke estimeres ud fra forhåndenværende data)</div>\n                        <ul>\n                           <li>hepatosplenisk T-cellelymfom (en sjælden form for blodkræft, som ofte er dødelig) </li>\n                           <li>Merkelcellekarcinom (en type hudkræft) </li>\n                           <li>Kaposis sarkom, en sjælden type kræft, der er forbundet med infektion med humant herpesvirus 8. Kaposis sarkom forekommer oftest som lilla læsioner på huden </li>\n                           <li>leversvigt </li>\n                           <li>forværring af en tilstand, som kaldes dermatomyositis (ses som hududslæt ledsaget af muskelsvaghed) </li>\n                           <li>vægtforøgelse (for de fleste patienters vedkommende var vægtforøgelsen lille). </li>\n                        </ul>\n                        <div class=\"paragraph\">\n                           <br/>Nogle bivirkninger, som er set med adalimumab har ikke symptomer og kan kun opdages ved blodprøver. Disse inkluderer:</div>\n                        <div class=\"paragraph\">\n                           <br/>\n                           <b>Meget almindelige </b>(kan påvirke flere end 1 ud af 10 personer)</div>\n                        <ul>\n                           <li>nedsat antal af hvide blodlegemer </li>\n                           <li>nedsat antal af røde blodlegemer </li>\n                           <li>forhøjede lipider i blodet </li>\n                           <li>forhøjede leverenzymer. </li>\n                        </ul>\n                        <div class=\"paragraph\">\n                           <br/>\n                           <b>Almindelige </b>(kan påvirke op til 1 ud af 10 personer)</div>\n                        <ul>\n                           <li>forhøjet antal hvide blodlegemer </li>\n                           <li>nedsat antal blodplader </li>\n                           <li>forhøjet urinsyre i blodet </li>\n                           <li>unormale blodmålinger af natrium </li>\n                           <li>lave blodmålinger af calcium </li>\n                           <li>lave blodmålinger af fosfat </li>\n                           <li>højt blodsukker </li>\n                           <li>høje blodmålinger af lactatdehydrogenase </li>\n                           <li>tilstedeværelse af autoantistoffer i blodet </li>\n                           <li>lavt kalium i blodet. </li>\n                        </ul>\n                        <div class=\"paragraph\">\n                           <br/>\n                           <b>Ikke almindelige </b>(kan påvirke op til 1 ud af 100 personer)</div>\n                        <ul>\n                           <li>forhøjede bilirubinmålinger (leverblodtest) </li>\n                        </ul>\n                        <div class=\"paragraph\">\n                           <br/>\n                           <b>Sjældne </b>(kan påvirke op til 1 ud af 1.000 personer)</div>\n                        <ul>\n                           <li>nedsat antal hvide blodlegemer, røde blodlegemer og blodplader. </li>\n                        </ul>\n                        <h3>  Indberetning af bivirkninger  </h3>\n                        <div class=\"paragraph\">Hvis du oplever bivirkninger, bør du tale med din læge eller apotekspersonalet. Dette gælder også mulige bivirkninger, som ikke er medtaget i denne indlægsseddel.</div>\n                        <div class=\"paragraph\">\n                           <br/>Du eller dine pårørende kan også indberette bivirkninger direkte til Lægemiddelstyrelsen via de oplysninger der fremgår herunder. Ved at indrapportere bivirkninger kan du hjælpe med at fremskaffe mere information om sikkerheden af dette lægemiddel.</div>\n                        <div class=\"paragraph\">\n                           <br/>Lægemiddelstyrelsen </div>\n                        <div class=\"paragraph\">Axel Heides Gade 1 </div>\n                        <div class=\"paragraph\">DK-2300 København S </div>\n                        <div class=\"paragraph\">Websted: www.meldenbivirkning.dk</div>\n                        <div class=\"paragraph\">\n                           <a href=\"https://www.meldenbivirkning.dk\" title=\"Meld en bivirkning\">\n\t\t\t\t\t\t\t\tMeld en bivirkning.\n\t\t\t\t\t\t\t</a>\n                        </div>\n                     </div>"
          }
        },
        {
          "title" : "5. Opbevaring",
          "code" : {
            "coding" : [{
              "system" : "https://spor.ema.europa.eu/v1/lists/200000029659/terms/",
              "code" : "200000029913"
            }]
          },
          "text" : {
            "status" : "additional",
            "div" : "<div xmlns=\"http://www.w3.org/1999/xhtml\">\n                        <a name=\"Section5\"/>\n                        <div>\u00a0</div>\n                        <h2>5. Opbevaring</h2>\n                        <div class=\"paragraph\">Opbevar lægemidlet utilgængeligt for børn.</div>\n                        <div class=\"paragraph\">\n                           <br/>Brug ikke lægemidlet efter den udløbsdato, der står på etiketten/blisterpakningen/pakningen efter EXP. Udløbsdatoen er den sidste dag i den nævnte måned.</div>\n                        <div class=\"paragraph\">\n                           <br/>Opbevares i køleskab (2 - 8°C). Må ikke nedfryses. </div>\n                        <div class=\"paragraph\">\n                           <br/>Opbevar den fyldte injektionssprøjte i den ydre karton for at beskytte mod lys.</div>\n                        <div class=\"paragraph\">\n                           <br/>\n                           <b>Alternativ opbevaring:</b>\n                        </div>\n                        <div class=\"paragraph\">Hvis det er nødvendigt (f.eks. når du rejser), kan Hyrimoz opbevares ved stuetemperatur (op til 25 °C) i en periode på højst 21 dage - sørg for at beskytte det mod lys. Når din fyldte injektionssprøjte er taget ud af køleskabet og har været opbevaret ved stuetemperatur, <b>skal injektionssprøjten bruges indenfor 21 dage eller kasseres</b>, også selv om den senere lægges tilbage i køleskab.</div>\n                        <div class=\"paragraph\">\n                           <br/>Du skal registrere den dato, hvor din fyldte injektionssprøjte først tages ud af køleskabet, og den dato efter hvilken, den skal kasseres.</div>\n                        <div class=\"paragraph\">\n                           <br/>Spørg apotekspersonalet, hvordan du skal bortskaffe medicinrester. Af hensyn til miljøet må du ikke smide medicinrester i afløbet, toilettet eller skraldespanden.</div>\n                     </div>"
          }
        },
        {
          "title" : "6. Pakningsstørrelser og yderligere oplysninger",
          "code" : {
            "coding" : [{
              "system" : "https://spor.ema.europa.eu/v1/lists/200000029659/terms/",
              "code" : "200000029914"
            }]
          },
          "text" : {
            "status" : "additional",
            "div" : "<div xmlns=\"http://www.w3.org/1999/xhtml\">\n                        <a name=\"Section6\"/>\n                        <div>\u00a0</div>\n                        <h2>6. Pakningsstørrelser og yderligere oplysninger</h2>\n                        <h3>  Hyrimoz indeholder  </h3>\n                        <ul>\n                           <li>Aktivt stof: adalimumab. Hver fyldte injektionssprøjte indeholder 40 mg adalimumab i 0,8 ml opløsning. </li>\n                           <li>Øvrige indholdsstoffer: adipinsyre, citronsyremonohydrat, natriumchlorid, mannitol, polysorbat 80, saltsyre, natriumhydroxid og vand til injektionsvæsker. </li>\n                        </ul>\n                        <h3>  Udseende og pakningsstørrelser  </h3>\n                        <div class=\"paragraph\">Hyrimoz 40 mg injektionsvæske, opløsning (injektion) i fyldt injektionssprøjte leveres som en 0,8 ml klar til lettere opaliserende, farveløs til let gullig injektionsvæske.</div>\n                        <div class=\"paragraph\">\n                           <br/>Hyrimoz leveres i en klar, type 1-glas-engangssprøjte med en kanyle i rustfrit stål med en kanylebeskyttelse med fingerstøtte, kanylehætte i gummi og plastikstempel med 0,8 ml injektionsvæske.</div>\n                        <div class=\"paragraph\">\n                           <br/>Pakningerne indeholder 1 og 2 fyldte injektionssprøjter med Hyrimoz.</div>\n                        <div class=\"paragraph\">Multipakninger indeholder 6 (3 pakninger a 2) fyldte injektionssprøjter med Hyrimoz.</div>\n                        <div class=\"paragraph\">\n                           <br/>Ikke alle pakningsstørrelser er nødvendigvis markedsført.</div>\n                        <div class=\"paragraph\">Hyrimoz findes som en fyldt injektionssprøjte og en fyldt pen (SensoReady).</div>\n                     </div>"
          },
          "section" : [{
            "title" : "Indehaver af markedsføringstilladelsen og fremstiller",
            "code" : {
              "coding" : [{
                "system" : "https://spor.ema.europa.eu/v1/lists/200000029659/terms/",
                "code" : "200000029917"
              }]
            },
            "text" : {
              "status" : "additional",
              "div" : "<div xmlns=\"http://www.w3.org/1999/xhtml\">\n                           <h2>Indehaver af markedsføringstilladelsen og fremstiller</h2>\n                           <h3>  Indehaver af markedsføringstilladelsen:  </h3>\n                           <div class=\"paragraph\">Sandoz GmbH</div>\n                           <div class=\"paragraph\">Biochemiestr. 10</div>\n                           <div class=\"paragraph\">6250 Kundl</div>\n                           <div class=\"paragraph\">Østrig</div>\n                           <h3>  Fremstiller:  </h3>\n                           <div class=\"paragraph\">Sandoz GmbH Schaftenau</div>\n                           <div class=\"paragraph\">Biochemiestr. 10</div>\n                           <div class=\"paragraph\">6336 Langkampfen</div>\n                           <div class=\"paragraph\">Østrig<br/>\n                              <br/>Hvis du ønsker yderligere oplysninger om dette lægemiddel, skal du henvende dig til den lokale repræsentant for indehaveren af markedsføringstilladelsen: <br/>\n                              <br/>\n                              <b>Sandoz A/S </b>\n                              <br/>Tlf: +45 63 95 10 00</div>\n                           <h3>  Andre informationskilder  </h3>\n                           <div class=\"paragraph\">Du kan finde yderligere oplysninger om dette lægemiddel på Det Europæiske Lægemiddelagenturs hjemmeside: http://www.ema.europa.eu.</div>\n                        </div>"
            }
          },
          {
            "title" : "Denne indlægsseddel blev senest ændret 06/2021",
            "code" : {
              "coding" : [{
                "system" : "https://spor.ema.europa.eu/v1/lists/200000029659/terms/",
                "code" : "200000029919"
              }]
            },
            "text" : {
              "status" : "additional",
              "div" : "<div xmlns=\"http://www.w3.org/1999/xhtml\">\n                           <h2>Denne indlægsseddel blev senest ændret 06/2021</h2>\n                        </div>"
            }
          },
          {
            "title" : "7. 7. Brugsanvisning",
            "code" : {
              "coding" : [{
                "system" : "https://spor.ema.europa.eu/v1/lists/200000029659/terms/",
                "code" : "200000029920"
              }]
            },
            "text" : {
              "status" : "additional",
              "div" : "<div xmlns=\"http://www.w3.org/1999/xhtml\">\n                           <a name=\"Section8\"/>\n                           <div>\u00a0</div>\n                           <h2>7. 7. Brugsanvisning</h2>\n                           <div class=\"paragraph\">For at undgå infektioner og for at sikre, at du bruger medicinen korrekt, er det vigtigt, at du følger denne vejledning. </div>\n                           <div class=\"paragraph\">\n                              <br/>Sørg for at læse, forstå og følge denne brugsvejledning, før du injicerer Hyrimoz. Din læge viser dig, hvordan du skal forberede og injicere Hyrimoz korrekt med den fyldte injektionssprøjte, inden du bruger det for første gang. Tal med din læge, hvis du har nogen spørgsmål.</div>\n                           <div class=\"paragraph\">\n                              <br/>\n                              <b>Din Hyrimoz fyldte engangssprøjte med kanylebeskyttelse og fingerstøtte som tilføjelse</b>\n                           </div>\n                           <div class=\"paragraph\">\n                              <img src=\"#175084\" alt=\"Hyrimoz Sandoz GmbH injektionsvæske, opløsning i fyldt injektionssprøjte 40 mg\"/>\n                           </div>\n                           <h3>  Det er vigtigt, at du:  </h3>\n                           <ul>\n                              <li>\n                                 <b>ikke åbner </b>den ydre emballage, før du er klar til at bruge sprøjten. </li>\n                              <li>\n                                 <b>ikke bruger </b>sprøjten, hvis forseglingen på blisterkortet er itu, da den i så fald måske ikke er sikker for dig at bruge. </li>\n                              <li>\n                                 <b>aldrig efterlader </b>sprøjten uden opsyn, hvor andre kan komme i kontakt med den. </li>\n                              <li>hvis du taber sprøjten, så <b>brug den ikke</b>, hvis den ser ud til at være beskadiget, eller hvis du tabte den, uden at kanylehætten var på. </li>\n                              <li>\n                                 <b>ikke fjerner </b>kanylehætten før umiddelbart inden, du giver injektionen. </li>\n                              <li>passer på <b>ikke at røre </b>ved kanylebeskyttelsesvingerne før brug. Hvis du rører ved dem, kan kanylebeskyttelsen blive aktiveret for tidligt. <b>Fjern ikke </b>fingerstøtten før injektionen. </li>\n                              <li>injicer Hyrimoz 15-30 minutter efter, at du har taget det ud af køleskabet for at få en mere behagelig injektion. </li>\n                              <li>smid den brugte sprøjte bort, straks efter du har brugt den. <b>Brug ikke sprøjten igen</b>. Se &quot;<b>4. Bortskaffelse af brugte sprøjter</b>&quot; i slutningen af denne brugsvejledning. </li>\n                           </ul>\n                           <h3>  Sådan skal du opbevare Hyrimoz:  </h3>\n                           <ul>\n                              <li>Opbevar din pakning med sprøjter i et køleskab, mellem 2 °C og 8 °C. </li>\n                              <li>Hvis det er nødvendigt (f.eks. når du rejser), kan Hyrimoz opbevares ved stuetemperatur (op til 25 °C) i en periode på højst 21 dage - sørg for at beskytte den mod lys. Når sprøjten er taget ud af køleskabet og har været opbevaret ved stuetemperatur, skal pennen <b>bruges indenfor 21 dage eller kasseres</b>, også selv om den senere lægges tilbage i køleskabet. Du skal registrere den dato, hvor sprøjten først tages ud af køleskabet, og den dato efter hvilken, den skal kasseres. </li>\n                              <li>Opbevar sprøjterne i den originale pakning, indtil du er klar til at bruge dem, for at beskytte dem mod lys. </li>\n                              <li>Opbevar ikke sprøjterne i ekstrem varme eller kulde. </li>\n                              <li>Sprøjterne må ikke nedfryses. </li>\n                           </ul>\n                           <div class=\"paragraph\">\n                              <br/>\n                              <b>Hyrimoz og andre lægemidler skal opbevares uden for børns rækkevidde.</b>\n                           </div>\n                           <h3>  Hvad skal du bruge til din injektion?  </h3>\n                           <div class=\"paragraph\">Læg følgende ting på et rent og fladt underlag.<br/>I din pakning finder du:</div>\n                           <ul>\n                              <li>Hyrimoz fyldt(e) injektionssprøjte(r) (se <b>Figur A</b>). Hver sprøjte indeholder 40 mg/0,8 ml Hyrimoz. </li>\n                           </ul>\n                           <div class=\"paragraph\">\n                              <br/>Følgende er ikke inkluderet i din pakning (se <b>Figur B</b>):</div>\n                           <ul>\n                              <li>Alkoholserviet </li>\n                              <li>Vatkugle eller gazebind </li>\n                              <li>Kanyleboks </li>\n                           </ul>\n                           <div class=\"paragraph\">\u00a0</div>\n                           <div class=\"paragraph\">\n                              <img src=\"#175085\" alt=\"Hyrimoz Sandoz GmbH injektionsvæske, opløsning i fyldt injektionssprøjte 40 mg\"/>\n                           </div>\n                           <div class=\"paragraph\">\u00a0</div>\n                           <div class=\"paragraph\">Se ”<b>4. Bortskaffelse af brugte sprøjter</b>” i slutningen af denne brugsvejledning.</div>\n                           <h3>  Før injektion  </h3>\n                           <div class=\"paragraph\">\n                              <img src=\"#175086\" alt=\"Hyrimoz Sandoz GmbH injektionsvæske, opløsning i fyldt injektionssprøjte 40 mg\"/>\n                           </div>\n                           <h3>  Forberedelse af sprøjten  </h3>\n                           <ul>\n                              <li>For at få en mere behagelig injektion, skal du tage blisterkortet med sprøjten ud af køleskabet og lade det ligge uåbnet på bordet i 15-30 minutter, indtil det får stuetemperatur. </li>\n                              <li>Tag sprøjten ud af blisterkortet. </li>\n                              <li>Se godt efter i vinduet. Opløsningen skal være <b>farveløs </b>til let gullig samt klar til let opaliserende. <b>Brug </b>den ikke, hvis du ser partikler og/eller misfarvning. Hvis du er bekymret over, hvordan opløsningen ser ud, så kontakt apotekspersonalet for at få hjælp. </li>\n                              <li>Brug ikke sprøjten, hvis den er itu eller hvis kanylebekyttelsen er aktiveret. Returner sprøjten og pakningen, som den kom i, til apoteket. </li>\n                              <li>Kontroller udløbsdatoen (EXP) på din sprøjte. Brug ikke sprøjten efter den angivne udløbsdato. </li>\n                           </ul>\n                           <div class=\"paragraph\">\n                              <br/>\n                              <b>Kontakt apotekspersonalet, hvis sprøjten ikke kan klare alle de ovenstående tjek.</b>\n                           </div>\n                           <h3>  1. Valg af injektionsstedet:  </h3>\n                           <ul>\n                              <li>Anbefalet injektionssted er på forsiden af dine lår. Du kan også bruge nederste del af maven, men ikke i et område i en omkreds på 5 cm rundt om din navle (se <b>Figur E</b>).<br/>\n                                 <img src=\"#175087\" alt=\"Hyrimoz Sandoz GmbH injektionsvæske, opløsning i fyldt injektionssprøjte 40 mg\"/>\n                              </li>\n                              <li>Vælg et andet område, hver gang du giver dig selv en injektion. </li>\n                              <li>Injicer ikke i et område, hvor huden er øm, har blå mærker, er rød, skæller eller er hård. Undgå områder med ar eller strækmærker. Hvis du har psoriasis, skal du IKKE injicere direkte iområder med plaque-psoriasis. </li>\n                           </ul>\n                           <h3>  2. Rensning af injektionsstedet:  </h3>\n                           <ul>\n                              <li>Vask dine hænder grundigt med sæbe og vand. </li>\n                              <li>Rens injektionsstedet med en alkoholserviet ved hjælp af cirklende bevægelser. Lad det tørre, før du injicerer (se <b>Figur F</b>).<br/>\n                                 <img src=\"#175088\" alt=\"Hyrimoz Sandoz GmbH injektionsvæske, opløsning i fyldt injektionssprøjte 40 mg\"/>\n                              </li>\n                              <li>Rør ikke ved det rensede område, før du injicerer. </li>\n                           </ul>\n                           <h3>  3. Giv injektionen:  </h3>\n                           <ul>\n                              <li>Træk forsigtigt kanylehætten lige af for at fjerne den fra sprøjten (se <b>Figur G</b>).<br/>\n                                 <img src=\"#175089\" alt=\"Hyrimoz Sandoz GmbH injektionsvæske, opløsning i fyldt injektionssprøjte 40 mg\"/>\n                              </li>\n                              <li>Læg kanylehætten væk. </li>\n                              <li>Måske ser du en dråbe væske komme ud af kanylen. Det er normalt. </li>\n                              <li>Klem forsigtigt om huden på injektionsstedet (se <b>Figur H</b>).<br/>\n                                 <img src=\"#175090\" alt=\"Hyrimoz Sandoz GmbH injektionsvæske, opløsning i fyldt injektionssprøjte 40 mg\"/>\n                              </li>\n                              <li>Stik kanylen ind i huden som vist. </li>\n                              <li>Pres kanylen helt ind for at sikre, at lægemidlet kommer fuldstændigt ind. </li>\n                              <li>Hold sprøjten som vist (se <b>Figur I</b>).<br/>\n                                 <img src=\"#175091\" alt=\"Hyrimoz Sandoz GmbH injektionsvæske, opløsning i fyldt injektionssprøjte 40 mg\"/>\n                              </li>\n                              <li>Skub langsomt stemplet så langt ned, som det kan komme, så stempelhovedet er mellem kanylebeskyttelsesvingerne. </li>\n                              <li>Hold stemplet presset helt ned, mens du holder sprøjten stille i 5 sekunder. </li>\n                              <li>Hold <b>stemplet presset helt ned</b>, mens du forsigtigt løfter kanylen lige ud af injektionsstedet og giver slip på din hud (se <b>Figur J</b>).<br/>\n                                 <img src=\"#175092\" alt=\"Hyrimoz Sandoz GmbH injektionsvæske, opløsning i fyldt injektionssprøjte 40 mg\"/>\n                              </li>\n                              <li>Giv langsomt slip på stemplet, og lad kanylebeskyttelses-hylsteret automatisk dække den synlige kanyle (se <b>Figur K</b>).<br/>\n                                 <img src=\"#175093\" alt=\"Hyrimoz Sandoz GmbH injektionsvæske, opløsning i fyldt injektionssprøjte 40 mg\"/>\n                              </li>\n                              <li>Der kan være en lille smule blod på injektionsstedet. Du kan presse en vatkugle eller et gazebind på injektions-stedet og holde det fast i 10 sekunder. Gnid ikke på injektionsstedet. Hvis det er nødvendigt, kan du dække injektionsstedet med et lille plaster. </li>\n                           </ul>\n                           <h3>  4. Bortskaffelse af brugte sprøjter:  </h3>\n                           <ul>\n                              <li>De brugte sprøjter bortskaffes i en kanyleboks (lukkelig, brudfast beholder). Kanyler og sprøjter må aldrig genbruges af hensyn til sikkerheden for dig og andre.<br/>\n                                 <img src=\"#175094\" alt=\"Hyrimoz Sandoz GmbH injektionsvæske, opløsning i fyldt injektionssprøjte 40 mg\"/>\n                              </li>\n                              <li>Spørg apotekspersonalet, hvordan du skal bortskaffe medicinrester. Af hensyn til miljøet må du ikke smide medicinrester i afløbet, toilettet eller skraldespanden. </li>\n                           </ul>\n                           <div class=\"paragraph\">\n                              <br/>\n                              <b>Hvis du har nogen spørgsmål, så tal med en læge, apotekspersonalet eller en sygeplejerske, som kender Hyrimoz.</b>\n                           </div>\n                        </div>"
            },
            "entry" : [{
              "reference" : "#175084"
            },
            {
              "reference" : "#175085"
            },
            {
              "reference" : "#175086"
            },
            {
              "reference" : "#175087"
            },
            {
              "reference" : "#175088"
            },
            {
              "reference" : "#175089"
            },
            {
              "reference" : "#175090"
            },
            {
              "reference" : "#175091"
            },
            {
              "reference" : "#175092"
            },
            {
              "reference" : "#175093"
            },
            {
              "reference" : "#175094"
            }]
          }]
        }]
      }]
    }
  },
  {
    "fullUrl" : "https://gravitatehealth.eu/fhir/nordic-epi/MedicinalProductDefinition/IBD-MPD-5",
    "resource" : {
      "resourceType" : "MedicinalProductDefinition",
      "id" : "IBD-MPD-5",
      "meta" : {
        "profile" : ["http://hl7.org/fhir/uv/emedicinal-product-info/StructureDefinition/MedicinalProductDefinition-uv-epi",
        "https://gravitatehealth.eu/fhir/nordic-epi-ig/StructureDefinition/Nordic-ePI-MedicinalProductDefinition"]
      },
      "text" : {
        "status" : "generated",
        "div" : "<div xmlns=\"http://www.w3.org/1999/xhtml\"><a name=\"MedicinalProductDefinition_IBD-MPD-5\"> </a><p><b>Generated Narrative: MedicinalProductDefinition</b><a name=\"IBD-MPD-5\"> </a><a name=\"hcIBD-MPD-5\"> </a></p><div style=\"display: inline-block; background-color: #d9e0e7; padding: 6px; margin: 4px; border: 1px solid #8da1b4; border-radius: 5px; line-height: 60%\"><p style=\"margin-bottom: 0px\">Resource MedicinalProductDefinition &quot;IBD-MPD-5&quot; </p><p style=\"margin-bottom: 0px\">Profiles: <a href=\"https://build.fhir.org/ig/HL7/emedicinal-product-info//StructureDefinition-MedicinalProductDefinition-uv-epi.html\">MedicinalProductDefinition (ePI)</a>, <code>https://gravitatehealth.eu/fhir/nordic-epi-ig/StructureDefinition/Nordic-ePI-MedicinalProductDefinition</code></p></div><p><b>identifier</b>: <code>http://legemiddelverket.no/FEST/LegemiddelMerkevareID</code>/ID_BEDDE81D-D141-4B6C-82CD-7049F50E69A9</p><h3>Names</h3><table class=\"grid\"><tr><td style=\"display: none\">-</td><td><b>ProductName</b></td></tr><tr><td style=\"display: none\">*</td><td>Hyrimoz inj, oppl 40 mg/sprøyte</td></tr></table></div>"
      },
      "identifier" : [{
        "system" : "http://legemiddelverket.no/FEST/LegemiddelMerkevareID",
        "value" : "ID_BEDDE81D-D141-4B6C-82CD-7049F50E69A9"
      }],
      "name" : [{
        "productName" : "Hyrimoz inj, oppl 40 mg/sprøyte"
      }]
    }
  },
  {
    "fullUrl" : "https://gravitatehealth.eu/fhir/nordic-epi/PackagedProductDefinition/IBD-PPD-5",
    "resource" : {
      "resourceType" : "PackagedProductDefinition",
      "id" : "IBD-PPD-5",
      "meta" : {
        "profile" : ["http://hl7.org/fhir/uv/emedicinal-product-info/StructureDefinition/PackagedProductDefinition-uv-epi",
        "https://gravitatehealth.eu/fhir/nordic-epi-ig/StructureDefinition/Nordic-ePI-PackagedProductDefinition"]
      },
      "text" : {
        "status" : "generated",
        "div" : "<div xmlns=\"http://www.w3.org/1999/xhtml\"><a name=\"PackagedProductDefinition_IBD-PPD-5\"> </a><p><b>Generated Narrative: PackagedProductDefinition</b><a name=\"IBD-PPD-5\"> </a><a name=\"hcIBD-PPD-5\"> </a></p><div style=\"display: inline-block; background-color: #d9e0e7; padding: 6px; margin: 4px; border: 1px solid #8da1b4; border-radius: 5px; line-height: 60%\"><p style=\"margin-bottom: 0px\">Resource PackagedProductDefinition &quot;IBD-PPD-5&quot; </p><p style=\"margin-bottom: 0px\">Profiles: <a href=\"https://build.fhir.org/ig/HL7/emedicinal-product-info//StructureDefinition-PackagedProductDefinition-uv-epi.html\">PackagedProductDefinition (ePI)</a>, <code>https://gravitatehealth.eu/fhir/nordic-epi-ig/StructureDefinition/Nordic-ePI-PackagedProductDefinition</code></p></div><p><b>identifier</b>: <code>http://legemiddelverket.no/FEST/LegemiddelPakningID</code>/ID_B180CF65-3410-495B-8DE9-FB37F79EF972, <code>https://farmalogg.no/varenummer</code>/050640, <code>https://pharmaca.fi/vnr</code>/592241</p><p><b>name</b>: Hyrimoz inj, oppl 40 mg/sprøyte</p><p><b>packageFor</b>: <a href=\"#MedicinalProductDefinition_IBD-MPD-5\">See above (MedicinalProductDefinition/IBD-MPD-5)</a></p></div>"
      },
      "identifier" : [{
        "system" : "http://legemiddelverket.no/FEST/LegemiddelPakningID",
        "value" : "ID_B180CF65-3410-495B-8DE9-FB37F79EF972"
      },
      {
        "system" : "https://farmalogg.no/varenummer",
        "value" : "050640"
      },
      {
        "system" : "https://pharmaca.fi/vnr",
        "value" : "592241"
      }],
      "name" : "Hyrimoz inj, oppl 40 mg/sprøyte",
      "packageFor" : [{
        "reference" : "MedicinalProductDefinition/IBD-MPD-5"
      }]
    }
  }]
}