<?xml version="1.0" encoding="UTF-8"?>

<Bundle xmlns="http://hl7.org/fhir">
  <id value="37144"/>
  <meta>
    <profile value="http://hl7.org/fhir/uv/emedicinal-product-info/StructureDefinition/Bundle-uv-epi"/>
  </meta>
  <language value="da"/>
  <identifier>
    <system value="https://www.indlaegssedler.dk/Indlaegssedler/Indlaegsseddel/"/>
    <value value="37144"/>
  </identifier>
  <type value="document"/>
  <timestamp value="2021-07-20T01:01:01Z"/>
  <entry>
    <fullUrl value="https://gravitatehealth.eu/fhir/nordic-epi/Composition/37144"/>
    <resource>
      <Composition>
        <id value="37144"/>
        <meta>
          <profile value="http://hl7.org/fhir/uv/emedicinal-product-info/StructureDefinition/Composition-uv-epi"/>
          <profile value="https://gravitatehealth.eu/fhir/nordic-epi-ig/StructureDefinition/Nordic-ePI-Composition-PIL"/>
        </meta>
        <language value="da"/>
        <text>
          <status value="generated"/><div xmlns="http://www.w3.org/1999/xhtml" xml:lang="da" lang="da"><a name="Composition_37144"> </a><p><b>Generated Narrative: Composition</b><a name="37144"> </a><a name="hc37144"> </a></p><div style="display: inline-block; background-color: #d9e0e7; padding: 6px; margin: 4px; border: 1px solid #8da1b4; border-radius: 5px; line-height: 60%"><p style="margin-bottom: 0px">Resource Composition &quot;37144&quot;  (Language &quot;da&quot;) </p><p style="margin-bottom: 0px">Profiles: <a href="https://build.fhir.org/ig/HL7/emedicinal-product-info//StructureDefinition-Composition-uv-epi.html">Composition (ePI)</a>, <code>https://gravitatehealth.eu/fhir/nordic-epi-ig/StructureDefinition/Nordic-ePI-Composition-PIL</code></p></div><p><b>identifier</b>: <code>https://www.indlaegssedler.dk/Indlaegssedler/Indlaegsseddel/</code>/37144</p><p><b>status</b>: final</p><p><b>type</b>: 100000155538 <span style="background: LightGoldenRodYellow; margin: 4px; border: 1px solid khaki"> (#100000155538)</span></p><p><b>date</b>: 2021-07-20</p><p><b>author</b>: <span><code>https://medicin.dk</code>/medicin.dk</span></p><p><b>title</b>: Hyrimoz 40 mg injektionsvæske, opl. i pen</p><hr/><blockquote><p><b>Generated Narrative: Binary #175114</b><a name="175114"> </a><a name="hc175114"> </a></p><p><b>contentType</b>: image/jpg</p><p><b>data</b>: (base64 data - 23143 bytes)</p></blockquote><hr/><blockquote><p><b>Generated Narrative: Binary #175115</b><a name="175115"> </a><a name="hc175115"> </a></p><p><b>contentType</b>: image/jpg</p><p><b>data</b>: (base64 data - 14678 bytes)</p></blockquote><hr/><blockquote><p><b>Generated Narrative: Binary #175116</b><a name="175116"> </a><a name="hc175116"> </a></p><p><b>contentType</b>: image/jpg</p><p><b>data</b>: (base64 data - 13525 bytes)</p></blockquote><hr/><blockquote><p><b>Generated Narrative: Binary #175117</b><a name="175117"> </a><a name="hc175117"> </a></p><p><b>contentType</b>: image/jpg</p><p><b>data</b>: (base64 data - 12810 bytes)</p></blockquote><hr/><blockquote><p><b>Generated Narrative: Binary #175118</b><a name="175118"> </a><a name="hc175118"> </a></p><p><b>contentType</b>: image/jpg</p><p><b>data</b>: (base64 data - 14441 bytes)</p></blockquote><hr/><blockquote><p><b>Generated Narrative: Binary #175119</b><a name="175119"> </a><a name="hc175119"> </a></p><p><b>contentType</b>: image/jpg</p><p><b>data</b>: (base64 data - 12533 bytes)</p></blockquote><hr/><blockquote><p><b>Generated Narrative: Binary #175121</b><a name="175121"> </a><a name="hc175121"> </a></p><p><b>contentType</b>: image/jpg</p><p><b>data</b>: (base64 data - 7166 bytes)</p></blockquote><hr/><blockquote><p><b>Generated Narrative: Binary #175120</b><a name="175120"> </a><a name="hc175120"> </a></p><p><b>contentType</b>: image/jpg</p><p><b>data</b>: (base64 data - 11377 bytes)</p></blockquote><hr/><blockquote><p><b>Generated Narrative: Binary #175122</b><a name="175122"> </a><a name="hc175122"> </a></p><p><b>contentType</b>: image/jpg</p><p><b>data</b>: (base64 data - 13281 bytes)</p></blockquote><hr/><blockquote><p><b>Generated Narrative: Binary #175123</b><a name="175123"> </a><a name="hc175123"> </a></p><p><b>contentType</b>: image/jpg</p><p><b>data</b>: (base64 data - 12887 bytes)</p></blockquote><hr/><blockquote><p><b>Generated Narrative: Binary #175124</b><a name="175124"> </a><a name="hc175124"> </a></p><p><b>contentType</b>: image/jpg</p><p><b>data</b>: (base64 data - 12430 bytes)</p></blockquote><hr/><blockquote><p><b>Generated Narrative: Binary #175125</b><a name="175125"> </a><a name="hc175125"> </a></p><p><b>contentType</b>: image/jpg</p><p><b>data</b>: (base64 data - 11420 bytes)</p></blockquote></div>
        </text>
        <contained>
          <Binary>
            <id value="175114"/>
            <contentType value="image/jpg"/>
            <data value=""/>
          </Binary>
        </contained>
        <contained>
          <Binary>
            <id value="175115"/>
            <contentType value="image/jpg"/>
            <data value=""/>
          </Binary>
        </contained>
        <contained>
          <Binary>
            <id value="175116"/>
            <contentType value="image/jpg"/>
            <data value=""/>
          </Binary>
        </contained>
        <contained>
          <Binary>
            <id value="175117"/>
            <contentType value="image/jpg"/>
            <data value=""/>
          </Binary>
        </contained>
        <contained>
          <Binary>
            <id value="175118"/>
            <contentType value="image/jpg"/>
            <data value=""/>
          </Binary>
        </contained>
        <contained>
          <Binary>
            <id value="175119"/>
            <contentType value="image/jpg"/>
            <data value=""/>
          </Binary>
        </contained>
        <contained>
          <Binary>
            <id value="175121"/>
            <contentType value="image/jpg"/>
            <data value=""/>
          </Binary>
        </contained>
        <contained>
          <Binary>
            <id value="175120"/>
            <contentType value="image/jpg"/>
            <data value=""/>
          </Binary>
        </contained>
        <contained>
          <Binary>
            <id value="175122"/>
            <contentType value="image/jpg"/>
            <data value=""/>
          </Binary>
        </contained>
        <contained>
          <Binary>
            <id value="175123"/>
            <contentType value="image/jpg"/>
            <data value=""/>
          </Binary>
        </contained>
        <contained>
          <Binary>
            <id value="175124"/>
            <contentType value="image/jpg"/>
            <data value=""/>
          </Binary>
        </contained>
        <contained>
          <Binary>
            <id value="175125"/>
            <contentType value="image/jpg"/>
            <data value=""/>
          </Binary>
        </contained>
        <identifier>
          <system value="https://www.indlaegssedler.dk/Indlaegssedler/Indlaegsseddel/"/>
          <value value="37144"/>
        </identifier>
        <status value="final"/>
        <type>
          <coding>
            <system value="https://spor.ema.europa.eu/v1/lists/100000155531/terms/"/>
            <code value="100000155538"/>
          </coding>
        </type>
        <subject>
          <reference value="MedicinalProductDefinition/IBD-MPD-2"/>
        </subject>
        <date value="2021-07-20"/>
        <author>
          <identifier>
            <system value="https://medicin.dk"/>
            <value value="medicin.dk"/>
          </identifier>
        </author>
        <title value="Hyrimoz 40 mg injektionsvæske, opl. i pen"/>
        <section>
          <title value="Indlægsseddel: Information til patienten"/>
          <code>
            <coding>
              <system value="https://spor.ema.europa.eu/v1/lists/200000029659/terms/"/>
              <code value="200000029894"/>
            </coding>
          </code>
          <text>
            <status value="additional"/><div xmlns="http://www.w3.org/1999/xhtml">
                     <a name="Section0"/>
                     <h2>  Indlægsseddel: Information til brugeren  </h2>
                     <h3>Hyrimoz 40 mg injektionsvæske, opløsning i fyldt pen</h3>
                     <div class="paragraph">Adalimumab</div>
                     <div class="paragraph">
                        <br/>▼ Dette lægemiddel er underlagt supplerende overvågning. Dermed kan der hurtigt tilvejebringes nye oplysninger om sikkerheden. Du kan hjælpe ved at indberette alle de bivirkninger, du får. Se sidst i <a href="#Section4" title="Anchor link til afsnit - punkt 4">punkt 4</a>, hvordan du indberetter bivirkninger.</div>
                     <h3>  Læs hele denne indlægsseddel grundigt, inden du begynder at bruge dette lægemiddel, da den indeholder vigtige oplysninger.  </h3>
                     <ul>
                        <li>Gem indlægssedlen. Du kan få brug for at læse den igen. </li>
                        <li>Din læge vil også udlevere et <b>patientkort</b>, der indeholder vigtige sikkerhedsinformationer, som du skal være opmærksom på før og under din behandling med Hyrimoz. Opbevar <b>patientkortet </b>på dig under din behandling og i 4 måneder efter din (eller dit barns) sidste injektion af Hyrimoz. </li>
                        <li>Spørg lægen eller apotekspersonalet, hvis der er mere, du vil vide. </li>
                        <li>Lægen har ordineret dette lægemiddel til dig personligt. Lad derfor være med at give medicinen til andre. Det kan være skadeligt for andre, selvom de har samme symptomer, som du har. </li>
                        <li>Kontakt lægen eller apotekspersonalet, hvis du får bivirkninger, herunder bivirkninger, som ikke er nævnt i denne indlægsseddel. Se <a href="#Section4" title="Anchor link til afsnit - punkt 4">punkt 4</a>. </li>
                     </ul>
                     <div class="paragraph">
                        <br/>Se den nyeste indlægsseddel på <a href="https://www.indlaegsseddel.dk" title="null">www.indlaegsseddel.dk</a>.</div>
                     <h3>  Oversigt over indlægssedlen  </h3>
                     <ol>
                        <li>Virkning og anvendelse </li>
                        <li>Det skal du vide, før du begynder at tage Hyrimoz </li>
                        <li>Sådan skal du tage Hyrimoz </li>
                        <li>Bivirkninger </li>
                        <li>Opbevaring </li>
                        <li>Pakningsstørrelser og yderligere oplysninger </li>
                        <li>Brugsvejledning </li>
                     </ol>
                  </div>
          </text>
          <section>
            <title value="1. Virkning og anvendelse"/>
            <code>
              <coding>
                <system value="https://spor.ema.europa.eu/v1/lists/200000029659/terms/"/>
                <code value="200000029895"/>
              </coding>
            </code>
            <text>
              <status value="additional"/><div xmlns="http://www.w3.org/1999/xhtml">
                        <a name="Section1"/>
                        <div> </div>
                        <h2>1. Virkning og anvendelse</h2>
                        <div class="paragraph">Hyrimoz indeholder det aktive stof adalimumab, et lægemiddel, som virker på din krops immunforsvar.</div>
                        <div class="paragraph">
                           <br/>Hyrimoz er beregnet til behandling af inflammatoriske sygdomme beskrevet nedenfor:</div>
                        <ul>
                           <li>reumatoid artrit </li>
                           <li>polyartikulær juvenil idiopatisk artrit </li>
                           <li>entesopatirelateret artrit </li>
                           <li>ankyloserende spondylitis </li>
                           <li>aksial spondyloartritis uden radiografiske tegn på AS </li>
                           <li>psoriasisartrit </li>
                           <li>psoriasis </li>
                           <li>hidrosadenitis suppurativa </li>
                           <li>Crohns sygdom </li>
                           <li>colitis ulcerosa og </li>
                           <li>ikke-infektiøs uveitis. </li>
                        </ul>
                        <div class="paragraph">
                           <br/>Det aktive stof i Hyrimoz, adalimumab, er et monoklonalt antistof. Monoklonale antistoffer er proteiner, som binder til et bestemt mål i kroppen.</div>
                        <div class="paragraph">
                           <br/>Målet for adalimumab er et andet protein kaldet tumornekrosefaktor (TNFα) som er involveret i immun (forsvars) systemet og er til stede i øgede mængder ved de inflammatoriske sygdomme nævnt ovenfor. Ved at binde sig til TNFα blokerer Hyrimoz dets virkning og reducerer den inflammatoriske proces ved disse sygdomme.</div>
                        <div class="paragraph">
                           <br/>
                           <b>Reumatoid artrit</b>
                        </div>
                        <div class="paragraph">Reumatoid artrit er en betændelsessygdom i leddene.</div>
                        <div class="paragraph">
                           <br/>Hyrimoz bruges til at behandle reumatoid artrit hos voksne. Hvis du har moderat til alvorlig aktiv reumatoid artrit, vil du evt. først få andre sygdomsmodificerende antireumatiske lægemidler, såsom methotrexat. Hvis du ikke responderer tilstrækkeligt på disse lægemidler, kan du få Hyrimoz til behandling af din reumatoide artrit.</div>
                        <div class="paragraph">
                           <br/>Hyrimoz kan også anvendes til behandling af alvorlig aktiv og progressiv reumatoid artrit, der ikke tidligere er behandlet med methotrexat.</div>
                        <div class="paragraph">
                           <br/>Hyrimoz har vist sig at kunne nedsætte hastigheden for ødelæggelse af brusk og knogler i leddene forårsaget af sygdommen og at forbedre de fysiske funktioner.</div>
                        <div class="paragraph">
                           <br/>Normalt gives Hyrimoz sammen med methotrexat. Hvis din læge ikke mener, at behandling med methotrexat er hensigtsmæssig, kan Hyrimoz anvendes alene.</div>
                        <div class="paragraph">
                           <br/>
                           <b>Polyartikulær juvenil idiopatisk artrit og entesopatirelateret artrit<br/>
                           </b>Polyartikulær juvenil idiopatisk artrit og entesopatirelateret artrit er sygdomme med betændelseslignende (inflammatoriske) reaktioner i leddene, som oftest viser sig første gang i barndommen.</div>
                        <div class="paragraph">
                           <br/>Hyrimoz bruges til at behandle polyartikulær juvenil idiopatisk artrit hos børn og unge i alderen fra 2 til 17 år og entesopatirelateret artrit hos og unge børn i alderen 6-17 år. Patienter skal først behandles med anden sygdomsdæmpende medicin såsom methotrexat. Hvis disse lægemidler ikke virker godt nok, vil patienterne få Hyrimoz til behandling af deres polyartikulær juvenil idiopatisk artrit eller entesopatirelateret artrit.</div>
                        <div class="paragraph">
                           <br/>
                           <b>Ankyloserende spondylitis og aksial spondyloartritis uden radiografiske tegn på ankyloserende spondylitis<br/>
                           </b>Ankyloserende spondylitis og aksial spondyloartritis uden radiografiske tegn på ankyloserende spondylitis er en inflammatorisk (betændelseslignende) sygdom i rygsøjlen.</div>
                        <div class="paragraph">
                           <br/>Hyrimoz bruges til at behandle disse sygdomme hos voksne. Hvis du har ankyloserende spondylitis eller aksial spondyloartritis uden radiografiske tegn på ankyloserende spondylitis, vil du først få anden medicin. Hvis denne anden medicin ikke virker godt nok, kan du få Hyrimoz for at mindske symptomerne på din sygdom.</div>
                        <div class="paragraph">
                           <br/>
                           <b>Plaque-psoriasis hos voksne og børn<br/>
                           </b>Plaque-psoriasis er en inflammatorisk hudlidelse, som forårsager røde, skællende, skorpede pletter på huden dækket med sølvfarvede skæl. Plaque-psoriasis kan også påvirke neglene. Det får dem til at smuldre, blive fortykkede og løfte sig fra neglelejet, hvilket kan være smertefuldt. Psoriasis formodes at være forårsaget af et problem med kroppens immunsystem, som fører til øget produktion af hudceller.</div>
                        <div class="paragraph">
                           <br/>Hyrimoz bruges også til at behandle moderat til alvorlig plaque-psoriasis hos voksne. Hyrimoz bruges også til at behandle alvorlig plaque-psoriasis hos børn og unge i alderen 4 til 17 år, hos hvem lægemidler påført huden og lysbehandlinger enten ikke har virket godt nok eller ikke er egnet.</div>
                        <div class="paragraph">
                           <br/>
                           <b>Psoriasisartrit<br/>
                           </b>Psoriasisartrit er en betændelsessygdom i leddene, som er forbundet med psoriasis.</div>
                        <div class="paragraph">
                           <br/>Hyrimoz bruges til at behandle psoriasisartrit hos voksne. Hyrimoz kan nedsætte hastigheden for ødelæggelse af brusk og knogler i leddene forårsaget af sygdommen og at forbedre den fysiske funktion.</div>
                        <div class="paragraph">
                           <br/>
                           <b>Hidrosadenitis suppurativa hos voksne og unge<br/>
                           </b>Hidrosadenitis suppurativa (kaldes somme tider svedkirtelbetændelse) er en langvarig, ofte smertefuld betændelseslignende (inflammatorisk) hudsygdom. Symptomerne kan være ømme knuder i huden (noduli) og abscesser (bylder), som kan udtømme pus.</div>
                        <div class="paragraph">Sygdommen påvirker oftest bestemte områder af huden, såsom under brystet, i armhulerne, på inderlårene, i lyskeområdet og på balderne. Der kan også forekomme ar i de berørte områder.</div>
                        <div class="paragraph">
                           <br/>Hyrimoz bruges til at behandle hidrosadenitis suppurativa hos voksne og unge fra 12 år. Hyrimoz kan nedsætte antallet af knuder og bylder og lindre den smerte, som ofte er forbundet med sygdommen. Du kan blive tilbudt anden medicin først. Hvis denne anden medicin ikke virker godt nok, vil du blive tilbudt Hyrimoz.</div>
                        <div class="paragraph">
                           <br/>
                           <b>Crohns sygdom hos voksne og børn<br/>
                           </b>Crohns sygdom er en inflammatorisk sygdom i tarmen.</div>
                        <div class="paragraph">
                           <br/>Hyrimoz bruges til at behandle Crohns sygdom hos voksne og børn i alderen 6-17 år. Hvis du har Crohns sygdom, vil du først få anden medicin. Hvis du ikke har tilstrækkelig effekt af denne medicin, vil du blive tilbudt Hyrimoz for at mindske sygdomstegn og symptomer på din Crohns sygdom.</div>
                        <div class="paragraph">
                           <br/>
                           <b>Colitis ulcerosa<br/>
                           </b>Colitis ulcerosa er en inflammatorisk (betændelseslignende) sygdom i mave-tarm-kanalen.</div>
                        <div class="paragraph">
                           <br/>Hyrimoz bruges til at behandle colitis ulcerosa hos voksne. Hvis du har colitis ulcerosa, vil du først få anden medicin. Hvis denne anden medicin ikke virker godt nok, kan du få Hyrimoz for at mindske symptomerne på din sygdom.</div>
                        <div class="paragraph">
                           <br/>
                           <b>Ikke-infektiøs uveitis hos voksne og børn<br/>
                           </b>Ikke-infektiøs uveitis er en betændelseslignende (inflammatorisk) sygdom, som påvirker bestemte dele af øjet. Inflammationen kan føre til nedsat syn og/eller fluer i øjet (sorte pletter eller sværm af uklarheder i øjet, som bevæger sig i synsfeltet). Hyrimoz virker ved at reducere denne inflammation.</div>
                        <div class="paragraph">
                           <br/>Hyrimoz bruges til at behandle</div>
                        <ul>
                           <li>voksne med ikke-infektiøs uveitis (regnbuehindebetændelse), som påvirker den bagerste del af øjet.</li>
                           <li>børn fra 2 år med kronisk ikke-infektiøs uveitis med inflammation, som påvirker forreste del af øjet.</li>
                        </ul>
                     </div>
            </text>
          </section>
          <section>
            <title value="2. Det skal du vide, før du begynder at tage Hyrimoz"/>
            <code>
              <coding>
                <system value="https://spor.ema.europa.eu/v1/lists/200000029659/terms/"/>
                <code value="200000029896"/>
              </coding>
            </code>
            <text>
              <status value="additional"/><div xmlns="http://www.w3.org/1999/xhtml">
                        <a name="Section2"/>
                        <div> </div>
                        <h2>2. Det skal du vide, før du begynder at tage Hyrimoz</h2>
                        <h3>  Tag ikke Hyrimoz  </h3>
                        <ul>
                           <li>hvis du er allergisk over for adalimumab eller et af de øvrige indholdsstoffer i Hyrimoz (angivet i <a href="#Section6" title="Anchor link til afsnit - punkt 6">punkt 6</a>). </li>
                           <li>hvis du har en alvorlig infektion, herunder tuberkulose, sepsis (blodforgiftning) eller andre opportunistiske infektioner (usædvanlige infektioner, som er forbundet med et svækket immunforsvar). Det er vigtigt, at du informerer lægen, hvis du har symptomer på infektioner, f.eks. feber, sår, træthedsfornemmelse, tandproblemer (se ”Advarsler og forsigtighedsregler”). </li>
                           <li>hvis du lider af moderat eller alvorlig hjertesvigt. Det er vigtigt at informere lægen, hvis du har eller har haft en alvorlig hjertesygdom (se ”Advarsler og forsigtighedsregler”). </li>
                        </ul>
                        <h3>  Advarsler og forsigtighedsregler  </h3>
                        <div class="paragraph">Kontakt lægen eller apotekspersonalet før anvendelse af Hyrimoz.</div>
                        <div class="paragraph">
                           <br/>
                           <b>Allergiske reaktioner</b>
                        </div>
                        <ul>
                           <li>Hvis du får allergiske reaktioner med symptomer som trykken for brystet, hvæsende vejrtrækning, svimmelhed, hævelser eller udslæt, så undlad at injicere mere Hyrimoz, og kontakt straks lægen, da disse reaktioner i sjældne tilfælde kan være livstruende. </li>
                        </ul>
                        <div class="paragraph">
                           <b>
                              <br/>Infektioner</b>
                        </div>
                        <ul>
                           <li>Hvis du har en infektion, herunder langvarig eller lokaliseret infektion (f.eks. bensår), bør du kontakte din læge, før du begynder at bruge Hyrimoz. Kontakt lægen, hvis du er i tvivl. </li>
                           <li>Infektioner kan opstå lettere under behandling med Hyrimoz. Risikoen kan stige, hvis din lungefunktion er nedsat. Disse infektioner kan være alvorlige og inkluderer tuberkulose, infektioner forårsaget af virus, svampe, parasitter eller bakterier eller andre usædvanlige infektionsorganismer og sepsis (blodforgiftning). </li>
                           <li>I sjældne tilfælde kan disse infektioner være livstruende. Det er vigtigt at informere lægen, hvis du får symptomer som feber, sår, træthedsfornemmelse eller tandproblemer. Din læge kan anbefale midlertidig afbrydelse af behandling med Hyrimoz. </li>
                        </ul>
                        <div class="paragraph">
                           <b>
                              <br/>Tuberkulose</b>
                        </div>
                        <ul>
                           <li>Eftersom der har været rapporteret tilfælde af tuberkulose hos patienter i behandling med adalimumab, vil lægen undersøge dig for tegn og symptomer på tuberkulose, før behandling med Hyrimoz påbegyndes. Dette vil omfatte en omhyggelig gennemgang af din sygdomshistorie og screeningstests (f.eks. røntgenundersøgelse af lunger og en tuberkulintest). Disse undersøgelser og resultaterne heraf bør registreres på dit patientkort. Det er meget vigtigt at informere lægen, hvis du nogensinde selv har haft tuberkulose, eller hvis du har været i tæt kontakt med nogen, som har haft tuberkulose. Tuberkulose kan udvikles under behandlingen, også selv om du har fået forebyggende behandling mod tuberkulose. Hvis der viser sig symptomer på tuberkulose (vedvarende hoste, vægttab, sløvhed, let feber) eller anden form for infektion under eller efter behandlingen, bør lægen straks informeres. </li>
                        </ul>
                        <div class="paragraph">
                           <b>
                              <br/>Rejse/gentagne infektioner</b>
                        </div>
                        <ul>
                           <li>Fortæl din læge, hvis du har haft fast bopæl eller rejst i områder, hvor svampeinfektioner som histoplasmose, kokcidioidomyse eller blastomykose er almindelige. </li>
                           <li>Fortæl din læge, hvis du har en sygdomshistorie med gentagne infektioner eller andre tilfælde, der forøger risikoen for infektioner. </li>
                        </ul>
                        <div class="paragraph">
                           <b>
                              <br/>Hepatitis B-virus</b>
                        </div>
                        <ul>
                           <li>Fortæl din læge, hvis du er bærer af hepatitis B-virus (HBV), hvis du har aktiv HBV-infektion eller, hvis du tror, du kan have risiko for at få HBV. Lægen vil teste dig for HBV. Adalimumab kan reaktivere HBV-infektion hos mennesker, der bærer denne virus. I sjældne tilfælde, specielt hvis du tager anden medicin, der undertrykker immunsystemet, kan reaktivering af HBV-infektion blive livstruende. </li>
                        </ul>
                        <div class="paragraph">
                           <br/>
                           <b>Over 65 år</b>
                        </div>
                        <ul>
                           <li>Hvis du er over 65 år, kan du være mere modtagelig for infektioner, mens du tager Hyrimoz. Du og din læge bør være særligt opmærksomme på tegn på infektion mens du er i behandling med Hyrimoz. Det er vigtigt, at du fortæller lægen, hvis du får symptomer på infektion såsom feber, sår, træthedsfornemmelse eller problemer med tænderne. </li>
                        </ul>
                        <div class="paragraph">
                           <b>
                              <br/>Operation eller tandbehandling</b>
                        </div>
                        <ul>
                           <li>Hvis du skal opereres eller have tandbehandling, skal du fortælle din læge, at du tager Hyrimoz. Din læge kan anbefale midlertidig afbrydelse af Hyrimoz. </li>
                        </ul>
                        <div class="paragraph">
                           <b>
                              <br/>Demyeliniserende sygdom</b>
                        </div>
                        <ul>
                           <li>Hvis du har eller udvikler demyeliniserende sygdom (en sygdom, der påvirker det isolerende lag rundt om nerverne som dissemineret sklerose) vil din læge afgøre, om du skal have eller fortsætte med at få Hyrimoz. Fortæl straks din læge, hvis du får ændringer i dit syn, svaghed i arme eller ben eller følelsesløshed eller en snurrende fornemmelse et sted i kroppen. </li>
                        </ul>
                        <div class="paragraph">
                           <b>
                              <br/>Vacciner</b>
                        </div>
                        <ul>
                           <li>Visse vacciner indeholder levende men svage former for sygdomsfremkaldende bakterier eller vira og infektioner og bør ikke gives under Hyrimoz-behandling i tilfælde af, at de giver infektioner. Tal venligst med lægen, før du får nogen form for vaccine. Det anbefales, at børn så vidt som muligt får alle vaccinationer i overensstemmelse med gældende retningslinjer for deres alder, før behandlingen med Hyrimoz indledes. Hvis du har fået Hyrimoz, mens du var gravid, kan dit spædbarn have en højere risiko for at få en infektion i op til ca. fem måneder efter din sidste dosis under graviditeten. Det er vigtigt, at du fortæller barnets læge og andre sundhedspersoner, at du fik Hyrimoz under graviditeten, så de kan beslutte, hvornår dit spædbarn bør vaccineres. </li>
                        </ul>
                        <div class="paragraph">
                           <b>
                              <br/>Hjertesvigt</b>
                        </div>
                        <ul>
                           <li>Det er vigtigt at informere lægen, hvis du har eller har haft en alvorlig hjertesygdom. Hvis du har lettere hjertesvigt og bliver behandlet med Hyrimoz, skal status for dit hjertesvigt følges nøje af din læge. Hvis du udvikler nye eller får forværrede symptomer på hjertesvigt (f.eks. stakåndethed eller hævede fødder), skal du kontakte din læge øjeblikkeligt. </li>
                        </ul>
                        <div class="paragraph">
                           <b>
                              <br/>Feber, blå mærker, blødning eller bleghed</b>
                        </div>
                        <ul>
                           <li>Hos nogle patienter vil kroppen ikke producere tilstrækkeligt af de blodlegemer, som hjælper kroppen med at bekæmpe infektioner eller hjælper med at stoppe blødninger. Hvis du får feber, som ikke vil forsvinde, blå mærker eller bløder meget let eller er meget bleg, skal du omgående henvende dig til din læge. Din læge kan eventuelt beslutte at afbryde behandlingen. </li>
                        </ul>
                        <div class="paragraph">
                           <b>
                              <br/>Kræft</b>
                        </div>
                        <ul>
                           <li>Der er set meget sjældne tilfælde af visse kræfttyper hos patienter, som tager adalimumab eller andre TNFα-hæmmere. Patienter med mere alvorlig reumatoid artrit, som har haft sygdommen i lang tid, kan have øget risiko i forhold til gennemsnittet for at få lymfomer og leukæmi (kræfttyper, som påvirker blodlegemer og knoglemarv). Når du tager Hyrimoz, kan risikoen for at få et lymfom, leukæmi eller andre former for kræft øges. I sjældne tilfælde er der set en alvorlig type af lymfom hos patienter, som tog adalimumab. Nogle af disse patienter blev også behandlet med lægemidlerne azathioprin eller mercaptopurin. Fortæl din læge, hvis du får lægemidlerne azathioprin eller mercaptopurin sammen med Hyrimoz. </li>
                           <li>Derudover er der set tilfælde af ikke-melanom hudkræft hos patienter, der tager adalimumab. Hvis der kommer nye områder med beskadiget hud under eller efter behandlingen, eller hvis de nuværende beskadigede områder forandrer sig, skal du fortælle det til din læge. </li>
                           <li>Der har været tilfælde af kræft, der er forskellig fra lymfom hos patienter med en specifik lungesygdom kaldet kronisk obstruktiv lungesygdom (KOL), der var i behandling med en anden TNFα-hæmmer. Hvis du har KOL, eller ryger meget, bør du diskutere med din læge, om behandling med en TNFα-hæmmer er passende for dig. </li>
                        </ul>
                        <div class="paragraph">
                           <b>
                              <br/>Autoimmune sygdomme</b>
                        </div>
                        <ul>
                           <li>I sjældne tilfælde kan behandling med Hyrimoz resultere i lupus-lignende syndrom. Fortæl din læge hvis der opstår symptomer såsom vedvarende uforklarligt udslæt, feber, ledsmerter eller træthed. </li>
                        </ul>
                        <h3>  Børn og unge  </h3>
                        <ul>
                           <li>Giv ikke Hyrimoz til børn under 2 år med polyartikulær juvenil idiopatisk artrit. </li>
                           <li>Giv ikke Hyrimoz til børn under 4 år med pædiatrisk plaque-psoriasis eller pædiatrisk colitis ulcerosa</li>
                           <li>Giv ikke Hyrimoz til børn under 6 år med pædiatrisk Crohns sygdom</li>
                           <li>Brug ikke 40 mg fyldt pen, hvis det anbefales at bruge andre doser end 40 mg</li>
                        </ul>
                        <h3>  Brug af anden medicin sammen med Hyrimoz  </h3>
                        <div class="paragraph">Fortæl altid lægen eller apotekspersonalet, hvis du bruger anden medicin for nylig har brugt anden medicin eller planlægger at bruge anden medicin.</div>
                        <div class="paragraph">
                           <br/>Hyrimoz kan anvendes sammen med methotrexat eller visse sygdomsmodificerende antireumatiske lægemidler (sulfasalazin, hydroxychloroquin, leflunomid og guldpræparater til injektion), kortikosteroider eller smertemedicin, herunder non-steroide anti-inflammatoriske lægemidler (NSAIDs).</div>
                        <div class="paragraph">
                           <br/>På grund af øget risiko for alvorlig infektion, må du ikke tage Hyrimoz sammen med medicin, der indeholder de aktive stoffer anakinra eller abatacept. Det anbefales ikke at kombinere adalimumab såvel som andre TNF-antagonister og anakira eller abatacept, grundet den mulige øgede risiko for infektion som for eksempel alvorlige infektioner og andre mulige farmakologiske interaktioner (lægemidlers påvirkning på hinanden). Hvis du har spørgsmål, skal du tale med din læge.</div>
                        <h3>  Graviditet og amning  </h3>
                        <ul>
                           <li>Du bør overveje brugen af passende prævention for at forhindre graviditet og fortsætte brugen mindst 5 måneder efter den sidste behandling med Hyrimoz. </li>
                           <li>Hvis du er gravid, har mistanke, om at du er gravid, eller planlægger at blive gravid, skal du spørge din læge til råds, før du tager dette lægemiddel. </li>
                           <li>Hyrimoz bør kun anvendes under graviditet, hvis det er tydeligvis er nødvendigt. </li>
                           <li>Der var ifølge et graviditetsstudie ikke højere risiko for misdannelser, når moderen havde fået adalimumab under graviditeten, ved sammenligning med mødre med samme sygdom, som ikke havde fået adalimumab. </li>
                           <li>Hyrimoz kan anvendes under amning. </li>
                           <li>Hvis du får Hyrimoz, mens du er gravid, kan dit spædbarn have en højere risiko for at få en infektion. </li>
                           <li>Det er vigtigt, at du fortæller barnets læge og andre sundhedspersoner om din brug af Hyrimoz under graviditeten, før dit barn får nogen vaccinationer. For mere information om vacciner, se afsnittet &quot;Advarsler og forsigtighedsregler&quot;. </li>
                        </ul>
                        <h3>  Trafik- og arbejdssikkerhed  </h3>
                        <div class="paragraph">Hyrimoz kan i mindre grad påvirke din evne til at færdes i trafikken, cykle eller betjene maskiner. Du kan få synsforstyrrelser og en fornemmelse af, at rummet drejer rundt (svimmelhed), efter du har taget Hyrimoz.</div>
                        <h3>  Hyrimoz indeholder natrium  </h3>
                        <div class="paragraph">Denne medicin indeholder mindre end 1 mmol natrium (23 mg) pr. 0,8 ml dosis, dvs. den er i det væsentlige natriumfri.</div>
                     </div>
            </text>
          </section>
          <section>
            <title value="3. Sådan skal du tage Hyrimoz"/>
            <code>
              <coding>
                <system value="https://spor.ema.europa.eu/v1/lists/200000029659/terms/"/>
                <code value="200000029905"/>
              </coding>
            </code>
            <text>
              <status value="additional"/><div xmlns="http://www.w3.org/1999/xhtml">
                        <a name="Section3"/>
                        <div> </div>
                        <h2>3. Sådan skal du tage Hyrimoz</h2>
                        <div class="paragraph">Tag altid lægemidlet nøjagtig efter lægens anvisning. Er du i tvivl, så spørg lægen eller apotekspersonalet.</div>
                        <div class="paragraph">
                           <br/>Hyrimoz fås som en 40 mg pen samt som 20 mg og 40 mg fyldte injektionssprøjter, så patienter kan administrere en fuld dosis på 20 mg eller 40 mg</div>
                        <div class="paragraph"> </div>
                        <table border="1" cellpadding="4" cellspacing="0" width="100%" style="border-collapse:collapse;">
                           <colgroup/>
                           <tr>
                              <td colspan="3" style="width:33%;" valign="top" align="left">
                                 <div class="paragraph">
                                    <b>Reumatoid artrit, psoriasisartrit, ankyloserende spondylitis eller aksial spondyloartritis uden radiografiske tegn på ankyloserende spondylitis</b>
                                 </div>
                              </td>
                           </tr>
                           <tr>
                              <td style="width:33%;" valign="top" align="left">
                                 <div class="paragraph">
                                    <b>Alder og kropsvægt</b>
                                 </div>
                              </td>
                              <td style="width:33%;" valign="top" align="left">
                                 <div class="paragraph">
                                    <b>Hvor meget og hvor ofte skal det tages?</b>
                                 </div>
                              </td>
                              <td style="width:33%;" valign="top" align="left">
                                 <div class="paragraph">
                                    <b>Bemærkninger</b>
                                 </div>
                              </td>
                           </tr>
                           <tr>
                              <td style="width:33%;" valign="top" align="left">
                                 <div class="paragraph">Voksne</div>
                              </td>
                              <td style="width:33%;" valign="top" align="left">
                                 <div class="paragraph">40 mg hver anden uge som en enkelt dosis</div>
                              </td>
                              <td style="width:33%;" valign="top" align="left">
                                 <div class="paragraph">Ved reumatoid artrit fortsættes methotrexat mens Hyrimoz bruges. Hvis din læge beslutter, at methotrexat ikke er passende, kan Hyrimoz gives alene.</div>
                                 <div class="paragraph">
                                    <br/>Hvis du har reumatoid artrit, og du ikke får methotrexat sammen med din Hyrimoz-behandling, kan lægen beslutte at give dig 40 mg Hyrimoz hver uge eller 80 mg hver anden uge.</div>
                              </td>
                           </tr>
                        </table>
                        <div class="paragraph"> </div>
                        <table border="1" cellpadding="4" cellspacing="0" width="100%" style="border-collapse:collapse;">
                           <colgroup/>
                           <tr>
                              <td colspan="3" style="width:33%;" valign="top" align="left">
                                 <div class="paragraph">
                                    <b>Polyartikulær juvenil idiopatisk artrit</b>
                                 </div>
                              </td>
                           </tr>
                           <tr>
                              <td style="width:33%;" valign="top" align="left">
                                 <div class="paragraph">
                                    <b>Alder og kropsvægt</b>
                                 </div>
                              </td>
                              <td style="width:33%;" valign="top" align="left">
                                 <div class="paragraph">
                                    <b>Hvor meget og hvor ofte skal det tages?</b>
                                 </div>
                              </td>
                              <td style="width:33%;" valign="top" align="left">
                                 <div class="paragraph">
                                    <b>Bemærkninger</b>
                                 </div>
                              </td>
                           </tr>
                           <tr>
                              <td style="width:33%;" valign="top" align="left">
                                 <div class="paragraph">Børn, unge og voksne fra 2 år, som vejer 30 kg eller mere</div>
                              </td>
                              <td style="width:33%;" valign="top" align="left">
                                 <div class="paragraph">40 mg hver anden uge</div>
                              </td>
                              <td style="width:33%;" valign="top" align="left">
                                 <div class="paragraph">Ikke relevant</div>
                              </td>
                           </tr>
                           <tr>
                              <td style="width:33%;" valign="top" align="left">
                                 <div class="paragraph">Børn, unge og voksne fra 2 år, som vejer 10 kg til under 30 kg</div>
                              </td>
                              <td style="width:33%;" valign="top" align="left">
                                 <div class="paragraph">20 mg hver anden uge</div>
                              </td>
                              <td style="width:33%;" valign="top" align="left">
                                 <div class="paragraph">Ikke relevant</div>
                              </td>
                           </tr>
                        </table>
                        <div class="paragraph"> </div>
                        <table border="1" cellpadding="4" cellspacing="0" width="100%" style="border-collapse:collapse;">
                           <colgroup/>
                           <tr>
                              <td colspan="3" style="width:33%;" valign="top" align="left">
                                 <div class="paragraph">
                                    <b>Entesopatirelateret artrit</b>
                                 </div>
                              </td>
                           </tr>
                           <tr>
                              <td style="width:33%;" valign="top" align="left">
                                 <div class="paragraph">
                                    <b>Alder og kropsvægt</b>
                                 </div>
                              </td>
                              <td style="width:33%;" valign="top" align="left">
                                 <div class="paragraph">
                                    <b>Hvor meget og hvor ofte skal det tages?</b>
                                 </div>
                              </td>
                              <td style="width:33%;" valign="top" align="left">
                                 <div class="paragraph">
                                    <b>Bemærkninger</b>
                                 </div>
                              </td>
                           </tr>
                           <tr>
                              <td style="width:33%;" valign="top" align="left">
                                 <div class="paragraph">Børn, unge og voksne fra 6 år, som vejer 30 kg eller mere</div>
                              </td>
                              <td style="width:33%;" valign="top" align="left">
                                 <div class="paragraph">40 mg hver anden uge</div>
                              </td>
                              <td style="width:33%;" valign="top" align="left">
                                 <div class="paragraph">Ikke relevant</div>
                              </td>
                           </tr>
                           <tr>
                              <td style="width:33%;" valign="top" align="left">
                                 <div class="paragraph">Børn, unge og voksne fra 6 år, som vejer 15 kg til under 30 kg</div>
                              </td>
                              <td style="width:33%;" valign="top" align="left">
                                 <div class="paragraph">20 mg hver anden uge</div>
                              </td>
                              <td style="width:33%;" valign="top" align="left">
                                 <div class="paragraph">Ikke relevant</div>
                              </td>
                           </tr>
                        </table>
                        <div class="paragraph"> </div>
                        <table border="1" cellpadding="4" cellspacing="0" width="100%" style="border-collapse:collapse;">
                           <colgroup/>
                           <tr>
                              <td colspan="3" style="width:33%;" valign="top" align="left">
                                 <div class="paragraph">
                                    <b>Psoriasis</b>
                                 </div>
                              </td>
                           </tr>
                           <tr>
                              <td style="width:33%;" valign="top" align="left">
                                 <div class="paragraph">
                                    <b>Alder og kropsvægt</b>
                                 </div>
                              </td>
                              <td style="width:33%;" valign="top" align="left">
                                 <div class="paragraph">
                                    <b>Hvor meget og hvor ofte skal det tages?</b>
                                 </div>
                              </td>
                              <td style="width:33%;" valign="top" align="left">
                                 <div class="paragraph">
                                    <b>Bemærkninger</b>
                                 </div>
                              </td>
                           </tr>
                           <tr>
                              <td style="width:33%;" valign="top" align="left">
                                 <div class="paragraph">Voksne</div>
                              </td>
                              <td style="width:33%;" valign="top" align="left">
                                 <div class="paragraph">Første dosis er 80 mg (som to 40 mg injektioner på én dag), efterfulgt af 40 mg givet hver anden uge med begyndelse én uge efter den første dosis.</div>
                              </td>
                              <td style="width:33%;" valign="top" align="left">
                                 <div class="paragraph">Du skal fortsætte med at injicere Hyrimoz så længe, som din læge har fortalt dig. Hvis denne dosis ikke virker godt nok, kan din læge øge dosis til 40 mg hver uge eller 80 mg hver anden uge.</div>
                              </td>
                           </tr>
                        </table>
                        <div class="paragraph"> </div>
                        <table border="1" cellpadding="4" cellspacing="0" width="100%" style="border-collapse:collapse;">
                           <colgroup/>
                           <tr>
                              <td colspan="3" style="width:33%;" valign="top" align="left">
                                 <div class="paragraph">
                                    <b>Plaque-psoriasis</b>
                                 </div>
                              </td>
                           </tr>
                           <tr>
                              <td style="width:33%;" valign="top" align="left">
                                 <div class="paragraph">
                                    <b>Alder og kropsvægt</b>
                                 </div>
                              </td>
                              <td style="width:33%;" valign="top" align="left">
                                 <div class="paragraph">
                                    <b>Hvor meget og hvor ofte skal det tages?</b>
                                 </div>
                              </td>
                              <td style="width:33%;" valign="top" align="left">
                                 <div class="paragraph">
                                    <b>Bemærkninger</b>
                                 </div>
                              </td>
                           </tr>
                           <tr>
                              <td style="width:33%;" valign="top" align="left">
                                 <div class="paragraph">Børn og unge fra 4 til 17 år, som vejer 30 kg eller mere</div>
                              </td>
                              <td style="width:33%;" valign="top" align="left">
                                 <div class="paragraph">Første dosis er 40 mg, efterfulgt af 40 mg én uge senere.<br/>
                                    <br/>Derefter er den sædvanlige dosis 40 mg hver anden uge.</div>
                              </td>
                              <td style="width:33%;" valign="top" align="left">
                                 <div class="paragraph">Ikke relevant</div>
                              </td>
                           </tr>
                           <tr>
                              <td style="width:33%;" valign="top" align="left">
                                 <div class="paragraph">Børn og unge fra 4 til 17 år, som vejer 15 kg til under 30 kg</div>
                              </td>
                              <td style="width:33%;" valign="top" align="left">
                                 <div class="paragraph">Første dosis er 20 mg, efterfulgt af 20 mg én uge senere.<br/>
                                    <br/>Derefter er den sædvanlige dosis 20 mg hver anden uge.</div>
                              </td>
                              <td style="width:33%;" valign="top" align="left">
                                 <div class="paragraph">Ikke relevant</div>
                              </td>
                           </tr>
                        </table>
                        <div class="paragraph"> </div>
                        <table border="1" cellpadding="4" cellspacing="0" width="100%" style="border-collapse:collapse;">
                           <colgroup/>
                           <tr>
                              <td colspan="3" style="width:33%;" valign="top" align="left">
                                 <div class="paragraph">
                                    <b>Hidradenitis suppurativa</b>
                                 </div>
                              </td>
                           </tr>
                           <tr>
                              <td style="width:33%;" valign="top" align="left">
                                 <div class="paragraph">
                                    <b>Alder og kropsvægt</b>
                                 </div>
                              </td>
                              <td style="width:33%;" valign="top" align="left">
                                 <div class="paragraph">
                                    <b>Hvor meget og hvor ofte skal det tages?</b>
                                 </div>
                              </td>
                              <td style="width:33%;" valign="top" align="left">
                                 <div class="paragraph">
                                    <b>Bemærkninger</b>
                                 </div>
                              </td>
                           </tr>
                           <tr>
                              <td style="width:33%;" valign="top" align="left">
                                 <div class="paragraph">Voksne</div>
                              </td>
                              <td style="width:33%;" valign="top" align="left">
                                 <div class="paragraph">Første dosis er 160 mg (som fire 40 mg injektioner på én dag eller to 40 mg injektioner pr. dag i to fortløbende dage), efterfulgt af en 80 mg dosis (som to 40 mg injektioner på samme dag) to uger senere.</div>
                                 <div class="paragraph">
                                    <br/>Efter yderligere to uger fortsættes med en dosis på 40 mg hver uge eller 80 mg hver anden uge som ordineret af din læge.</div>
                              </td>
                              <td style="width:33%;" valign="top" align="left">
                                 <div class="paragraph">Det anbefales, at du dagligt bruger et antiseptisk vaskemiddel på de berørte områder.</div>
                              </td>
                           </tr>
                           <tr>
                              <td style="width:33%;" valign="top" align="left">
                                 <div class="paragraph">Unge fra 12 til 17 år, der vejer 30 kg eller mere</div>
                              </td>
                              <td style="width:33%;" valign="top" align="left">
                                 <div class="paragraph">Første dosis er 80 mg (som to 40 mg injektioner på én dag), efterfulgt af 40 mg hver anden uge med begyndelse én uge senere.</div>
                              </td>
                              <td style="width:33%;" valign="top" align="left">
                                 <div class="paragraph">Hvis denne dosis ikke virker godt nok, kan din læge øge dosis til 40 mg hver uge eller 80 mg hver anden uge.</div>
                                 <div class="paragraph">
                                    <br/>Det anbefales, at du dagligt bruger et antiseptisk vaskemiddel på de berørte områder.</div>
                              </td>
                           </tr>
                        </table>
                        <div class="paragraph"> </div>
                        <table border="1" cellpadding="4" cellspacing="0" width="100%" style="border-collapse:collapse;">
                           <colgroup/>
                           <tr>
                              <td colspan="3" style="width:33%;" valign="top" align="left">
                                 <div class="paragraph">
                                    <b>Crohns sygdom</b>
                                 </div>
                              </td>
                           </tr>
                           <tr>
                              <td style="width:33%;" valign="top" align="left">
                                 <div class="paragraph">
                                    <b>Alder og kropsvægt</b>
                                 </div>
                              </td>
                              <td style="width:33%;" valign="top" align="left">
                                 <div class="paragraph">
                                    <b>Hvor meget og hvor ofte skal det tages?</b>
                                 </div>
                              </td>
                              <td style="width:33%;" valign="top" align="left">
                                 <div class="paragraph">
                                    <b>Bemærkninger</b>
                                 </div>
                              </td>
                           </tr>
                           <tr>
                              <td style="width:33%;" valign="top" align="left">
                                 <div class="paragraph">Voksne</div>
                              </td>
                              <td style="width:33%;" valign="top" align="left">
                                 <div class="paragraph">Første dosis er 80 mg (som to 40 mg injektioner på én dag), efterfulgt af 40 mg hver anden uge med begyndelse to uger senere.</div>
                                 <div class="paragraph">
                                    <br/>Hvis der er brug for et hurtigere respons, kan lægen ordinere en første dosis på 160 mg (som fire 40 mg injektioner på én dag eller to 40 mg injektioner pr. dag i to fortløbende dage), efterfulgt af 80 mg (som to 40 mg injektioner på én dag) to uger senere.</div>
                                 <div class="paragraph">
                                    <br/>Derefter er den sædvanlige dosis 40 mg hver anden uge.</div>
                              </td>
                              <td style="width:33%;" valign="top" align="left">
                                 <div class="paragraph">Hvis denne dosis ikke virker godt nok, kan din læge øge dosis til 40 mg hver uge eller 80 mg hver anden uge.</div>
                              </td>
                           </tr>
                        </table>
                        <div class="paragraph"> </div>
                        <table border="1" cellpadding="4" cellspacing="0" width="100%" style="border-collapse:collapse;">
                           <colgroup/>
                           <tr>
                              <td colspan="3" style="width:33%;" valign="top" align="left">
                                 <div class="paragraph">
                                    <b>Crohns sygdom hos børn</b>
                                 </div>
                              </td>
                           </tr>
                           <tr>
                              <td style="width:33%;" valign="top" align="left">
                                 <div class="paragraph">
                                    <b>Alder og kropsvægt</b>
                                 </div>
                              </td>
                              <td style="width:33%;" valign="top" align="left">
                                 <div class="paragraph">
                                    <b>Hvor meget og hvor ofte skal det tages?</b>
                                 </div>
                              </td>
                              <td style="width:33%;" valign="top" align="left">
                                 <div class="paragraph">
                                    <b>Bemærkninger</b>
                                 </div>
                              </td>
                           </tr>
                           <tr>
                              <td style="width:33%;" valign="top" align="left">
                                 <div class="paragraph">Børn og unge fra 6 til 17 år, som vejer 40 kg eller mere</div>
                              </td>
                              <td style="width:33%;" valign="top" align="left">
                                 <div class="paragraph">Første dosis er 80 mg (som to 40 mg injektioner på én dag), efterfulgt af 40 mg hver anden uge med begyndelse to uger senere.</div>
                                 <div class="paragraph">
                                    <br/>Hvis der er brug for et hurtigere respons, kan lægen ordinere en første dosis på 160 mg (som fire 40 mg injektioner på én dag eller to 40 mg injektioner pr. dag i to fortløbende dage), efterfulgt af 80 mg (som to 40 mg injektioner på én dag) to uger senere.</div>
                                 <div class="paragraph">
                                    <br/>Derefter er den sædvanlige dosis 40 mg hver anden uge.</div>
                              </td>
                              <td style="width:33%;" valign="top" align="left">
                                 <div class="paragraph">Hvis denne dosis ikke virker godt nok, kan dit barns læge øge dosis til 40 mg hver uge eller 80 mg hver anden uge.</div>
                              </td>
                           </tr>
                           <tr>
                              <td style="width:33%;" valign="top" align="left">
                                 <div class="paragraph">Børn og unge fra 6 til 17 år, som vejer under 40 kg</div>
                              </td>
                              <td style="width:33%;" valign="top" align="left">
                                 <div class="paragraph">Første dosis er 40 mg, efterfulgt af 20 mg hver anden uge med begyndelse to uger senere.</div>
                                 <div class="paragraph">
                                    <br/>Hvis der er brug for et hurtigere respons, kan lægen ordinere en første dosis på 80 mg (som to 40 mg injektioner på én dag), efterfulgt af 40 mg to uger senere.</div>
                                 <div class="paragraph">
                                    <br/>Derefter er den sædvanlige dosis 20 mg hver anden uge.</div>
                              </td>
                              <td style="width:33%;" valign="top" align="left">
                                 <div class="paragraph">Hvis denne dosis ikke virker godt nok, kan dit barns læge øge hyppigheden af dosis til 20 mg hver uge.</div>
                              </td>
                           </tr>
                        </table>
                        <div class="paragraph"> </div>
                        <table border="1" cellpadding="4" cellspacing="0" width="100%" style="border-collapse:collapse;">
                           <colgroup/>
                           <tr>
                              <td colspan="3" style="width:33%;" valign="top" align="left">
                                 <div class="paragraph">
                                    <b>Colitis ulcerosa</b>
                                 </div>
                              </td>
                           </tr>
                           <tr>
                              <td style="width:33%;" valign="top" align="left">
                                 <div class="paragraph">
                                    <b>Alder og kropsvægt</b>
                                 </div>
                              </td>
                              <td style="width:33%;" valign="top" align="left">
                                 <div class="paragraph">
                                    <b>Hvor meget og hvor ofte skal det tages?</b>
                                 </div>
                              </td>
                              <td style="width:33%;" valign="top" align="left">
                                 <div class="paragraph">
                                    <b>Bemærkninger</b>
                                 </div>
                              </td>
                           </tr>
                           <tr>
                              <td style="width:33%;" valign="top" align="left">
                                 <div class="paragraph">Voksne</div>
                              </td>
                              <td style="width:33%;" valign="top" align="left">
                                 <div class="paragraph">Første dosis er 160 mg (som fire 40 mg injektioner på én dag eller som to 40 mg injektioner pr. dag i to fortløbende dage), efterfulgt af 80 mg (som to 40 mg injektioner på én dag) to uger senere.</div>
                                 <div class="paragraph">
                                    <br/>Derefter er den sædvanlige dosis 40 mg hver anden uge.</div>
                              </td>
                              <td style="width:33%;" valign="top" align="left">
                                 <div class="paragraph">Hvis denne dosis ikke virker godt nok, kan din læge øge dosis til 40 mg hver uge eller 80 mg hver anden uge.</div>
                              </td>
                           </tr>
                        </table>
                        <div class="paragraph"> </div>
                        <table border="1" cellpadding="4" cellspacing="0" width="100%" style="border-collapse:collapse;">
                           <colgroup/>
                           <tr>
                              <td colspan="3" style="width:33%;" valign="top" align="left">
                                 <div class="paragraph">
                                    <b>Ikke-infektiøs uveitis</b>
                                 </div>
                              </td>
                           </tr>
                           <tr>
                              <td style="width:33%;" valign="top" align="left">
                                 <div class="paragraph">
                                    <b>Alder og kropsvægt</b>
                                 </div>
                              </td>
                              <td style="width:33%;" valign="top" align="left">
                                 <div class="paragraph">
                                    <b>Hvor meget og hvor ofte skal det tages?</b>
                                 </div>
                              </td>
                              <td style="width:33%;" valign="top" align="left">
                                 <div class="paragraph">
                                    <b>Bemærkninger</b>
                                 </div>
                              </td>
                           </tr>
                           <tr>
                              <td style="width:33%;" valign="top" align="left">
                                 <div class="paragraph">Voksne</div>
                              </td>
                              <td style="width:33%;" valign="top" align="left">
                                 <div class="paragraph">Første dosis er 80 mg (som to 40 mg injektioner), efterfulgt af 40 mg hver anden uge med begyndelse én uge efter den første dosis.</div>
                              </td>
                              <td style="width:33%;" valign="top" align="left">
                                 <div class="paragraph">Ved ikke-infektiøs uveitis kan behandling med kortikosteroider eller anden medicin, der påvirker immunsystemet, fortsættes under behandling med Hyrimoz. Hyrimoz kan også gives alene.</div>
                                 <div class="paragraph">
                                    <br/>Du skal fortsætte med at injicere Hyrimoz så længe, som din læge har fortalt dig.</div>
                              </td>
                           </tr>
                           <tr>
                              <td style="width:33%;" valign="top" align="left">
                                 <div class="paragraph">Børn og unge fra 2 år, som vejer 30 kg eller mere</div>
                              </td>
                              <td style="width:33%;" valign="top" align="left">
                                 <div class="paragraph">40 mg hver anden uge sammen med methotrexat</div>
                              </td>
                              <td style="width:33%;" valign="top" align="left">
                                 <div class="paragraph">Lægen kan også ordinere en første dosis på 80 mg, som kan gives én uge før start af den sædvanlige dosis.</div>
                              </td>
                           </tr>
                           <tr>
                              <td style="width:33%;" valign="top" align="left">
                                 <div class="paragraph">Børn og unge fra 2 år, som vejer under 30 kg</div>
                              </td>
                              <td style="width:33%;" valign="top" align="left">
                                 <div class="paragraph">20 mg hver anden uge sammen med methotrexat</div>
                              </td>
                              <td style="width:33%;" valign="top" align="left">
                                 <div class="paragraph">Lægen kan også ordinere en første dosis på 40 mg, som kan gives én uge før start af den sædvanlige dosis.</div>
                              </td>
                           </tr>
                        </table>
                        <div class="paragraph"> </div>
                        <h3>  Metode og indgivelsesvej  </h3>
                        <div class="paragraph">Hyrimoz indgives ved injektion under huden (subkutan injektion).</div>
                        <div class="paragraph">
                           <br/>Detaljeret vejledning om, hvordan Hyrimoz injiceres, gives i <a href="#Section0" title="Anchor link til afsnit - punkt 7">punkt 7</a> ”<b>Brugsvejledning</b>”.</div>
                        <h3>  Hvis du har taget for meget Hyrimoz  </h3>
                        <div class="paragraph">Hvis du ved en fejltagelse injicerer Hyrimoz hyppigere end forskrevet, skal du kontakte lægen eller apotekspersonalet og forklare, at du har taget mere medicin end nødvendigt. Tag altid medicinens ydre karton med, også selvom den er tom.</div>
                        <h3>  Hvis du har glemt at tage Hyrimoz  </h3>
                        <div class="paragraph">Hvis du glemmer at give dig selv en injektion, skal du injicere den næste dosis af Hyrimoz, så snart du kommer i tanke om det. Fortsæt dernæst med at injicere næste dosis som planlagt på den oprindeligt fastlagte dag, som om du ikke havde glemt en dosis.</div>
                        <h3>  Hvis du holder op med at tage Hyrimoz  </h3>
                        <div class="paragraph">Beslutningen om at stoppe med at bruge Hyrimoz skal diskuteres med din læge. Dine symptomer kan komme igen efter ophør af behandlingen.</div>
                        <div class="paragraph">
                           <br/>Spørg lægen eller apotekspersonalet, hvis der er noget, du er i tvivl om.</div>
                     </div>
            </text>
          </section>
          <section>
            <title value="4. Bivirkninger"/>
            <code>
              <coding>
                <system value="https://spor.ema.europa.eu/v1/lists/200000029659/terms/"/>
                <code value="200000029910"/>
              </coding>
            </code>
            <text>
              <status value="additional"/><div xmlns="http://www.w3.org/1999/xhtml">
                        <a name="Section4"/>
                        <div> </div>
                        <h2>4. Bivirkninger</h2>
                        <div class="paragraph">Dette lægemiddel kan som alle andre lægemidler give bivirkninger, men ikke alle får bivirkninger. De fleste bivirkninger er af let til moderat grad. Der kan dog forekomme mere alvorlige bivirkninger, som kræver behandling. Bivirkninger kan forekomme op til 4 måneder eller mere efter den sidste</div>
                        <div class="paragraph">Hyrimoz-injektion.</div>
                        <div class="paragraph">
                           <br/>
                           <b>Søg straks lægehjælp</b>, hvis du bemærker følgende tegn på en allergisk reaktion eller hjertesvigt:</div>
                        <ul>
                           <li>alvorligt udslæt eller nældefeber </li>
                           <li>hævelser i ansigt, hænder eller fødder </li>
                           <li>besvær med at trække vejret eller synke </li>
                           <li>stakåndethed ved fysisk anstrengelse eller når du ligger ned, eller hævede fødder. </li>
                        </ul>
                        <div class="paragraph">
                           <br/>
                           <b>Kontakt lægen så hurtigt som muligt</b>, hvis du bemærker et eller flere af følgende symptomer:</div>
                        <ul>
                           <li>tegn og symptomer på infektion, såsom feber, følelse af sygdom, sår, tandproblemer eller smerter ved vandladning, følelse af svaghed eller træthed eller hoste; </li>
                           <li>symptomer på nerveproblemer som snurren og prikken, følelsesløshed, dobbeltsyn eller svaghed i arme og ben; </li>
                           <li>tegn på hudkræft som en bule eller åbent sår, som ikke vil hele </li>
                           <li>tegn og symptomer, som kan tyde på blodsygdomme såsom vedvarende feber, blå mærker, blødning, bleghed. </li>
                        </ul>
                        <h3>  Følgende bivirkninger er observeret ved brug af adalimumab:  </h3>
                        <div class="paragraph">
                           <b>Meget almindelige </b>(kan påvirke flere end 1 ud af 10 personer)</div>
                        <ul>
                           <li>reaktioner ved injektionsstedet (herunder smerter, hævelse, rødme eller kløe) </li>
                           <li>luftvejsinfektioner (inklusive forkølelse, løbende næse, bihulebetændelse, lungebetændelse) </li>
                           <li>hovedpine </li>
                           <li>mavesmerter </li>
                           <li>kvalme og opkastning </li>
                           <li>udslæt </li>
                           <li>muskelsmerter. </li>
                        </ul>
                        <div class="paragraph">
                           <br/>
                           <b>Almindelige </b>(kan påvirke op til 1 ud af 10 personer)</div>
                        <ul>
                           <li>alvorlige infektioner (inklusive blodforgiftning og influenza) </li>
                           <li>tarminfektioner (inklusive betændelse i mave og tarm) </li>
                           <li>hudinfektioner (inklusive bindevævsbetændelse og helvedessild) </li>
                           <li>øreinfektioner </li>
                           <li>infektioner i munden (inklusive tandinfektioner og forkølelsessår) </li>
                           <li>infektioner i kønsvejene </li>
                           <li>urinvejsinfektion </li>
                           <li>svampeinfektioner </li>
                           <li>ledinfektioner </li>
                           <li>godartede svulster </li>
                           <li>hudkræft </li>
                           <li>allergiske reaktioner (inklusive sæsonbestemt allergi) </li>
                           <li>dehydrering (væskemangel) </li>
                           <li>humørsvingninger (inklusive depression) </li>
                           <li>angst </li>
                           <li>søvnbesvær </li>
                           <li>følelsesforstyrrelser såsom snurren, prikken eller følelsesløshed </li>
                           <li>migræne </li>
                           <li>symptomer på nerverodskompression (inklusive smerter i den nederste del af ryggen og bensmerter) </li>
                           <li>synsforstyrrelser </li>
                           <li>betændelse i øjet </li>
                           <li>betændelse i øjenlåget og hævede øjne </li>
                           <li>vertigo (fornemmelse af at snurre rundt) </li>
                           <li>fornemmelse af hurtige hjerteslag </li>
                           <li>højt blodtryk </li>
                           <li>rødme </li>
                           <li>blodansamling </li>
                           <li>hoste </li>
                           <li>astma </li>
                           <li>kortåndethed </li>
                           <li>blødning i mave-tarm-kanalen </li>
                           <li>sure opstød (fordøjelsesbesvær, oppustethed, halsbrand) </li>
                           <li>syrereflukssygdom </li>
                           <li>Sjøgrens syndrom (inklusive tørre øjne og tør mund) </li>
                           <li>kløe </li>
                           <li>kløende udslæt </li>
                           <li>blå mærker </li>
                           <li>inflammation i huden (såsom eksem) </li>
                           <li>fingernegle og tånegle knækker </li>
                           <li>øget svedtendens </li>
                           <li>hårtab </li>
                           <li>nye udbrud eller forværring af psoriasis </li>
                           <li>muskelspasmer </li>
                           <li>blod i urinen </li>
                           <li>nyreproblemer </li>
                           <li>brystsmerter </li>
                           <li>ødem (væskeophobning i kroppen, som får det påvirkede væv til at hæve) </li>
                           <li>feber </li>
                           <li>nedsat antal blodplader med forøget risiko for blødning eller blå mærker </li>
                           <li>forringet sårheling. </li>
                        </ul>
                        <div class="paragraph">
                           <br/>
                           <b>Ikke almindelig </b>(kan påvirke op til 1 ud af 100 personer)</div>
                        <ul>
                           <li>usædvanlige infektioner (som inkluderer tuberkulose og andre infektioner), som forekommer, når modstandskraften mod sygdom er nedsat) </li>
                           <li>neurologiske infektioner (inklusive viral meningitis) </li>
                           <li>øjeninfektioner </li>
                           <li>bakterieinfektioner </li>
                           <li>irritation og infektion i tyktarmen (diverticulitis) </li>
                           <li>kræft inklusive kræft, der rammer lymfesystemet (lymfom) og modermærkekræft </li>
                           <li>sygdomme i immunsystemet, som kan påvirke lungerne, huden og lymfeknuderne (viser sig oftest som en sygdom, der kaldes sarkoidose) </li>
                           <li>vaskulitis (betændelse i blodkar) </li>
                           <li>rysten </li>
                           <li>neuropati (nerveskade) </li>
                           <li>slagtilfælde </li>
                           <li>dobbeltsyn </li>
                           <li>høretab, summen for ørerne </li>
                           <li>fornemmelse af uregelmæssige hjerteslag såsom oversprungne slag </li>
                           <li>hjerteproblemer, som kan forårsage kortåndethed og hævede ankler </li>
                           <li>hjertetilfælde </li>
                           <li>sæklignende udposning på væggen af en større pulsåre (aneurisme), betændelse og blodprop i en blodåre, tilstopning af et blodkar </li>
                           <li>lungesygdom, som forårsager kortåndethed (inklusive inflammation) </li>
                           <li>blodprop i lungerne (lungeemboli) </li>
                           <li>unormal ophobning af væske mellem lungehinderne (pleuraeffusion) </li>
                           <li>inflammation i bugspytkirtlen, som kan give alvorlige smerter i maven og ryggen </li>
                           <li>synkebesvær </li>
                           <li>hævelse i ansigtet </li>
                           <li>inflammation i galdeblæren, galdesten </li>
                           <li>fedtlever (ophobning af fedt i levercellerne) </li>
                           <li>nattesved </li>
                           <li>ar </li>
                           <li>unormal muskelnedbrydning </li>
                           <li>systemisk lupus erythematosus (en immunforstyrrelse, der indbefatter betændelse i huden, hjertet, lungerne, leddene og andre organsystemer) </li>
                           <li>søvnafbrydelser </li>
                           <li>impotens </li>
                           <li>inflammationer. </li>
                        </ul>
                        <div class="paragraph">
                           <br/>
                           <b>Sjældne </b>(kan påvirke op til 1 ud af 1.000 personer)</div>
                        <ul>
                           <li>leukæmi (kræft, som påvirker blod og knoglemarv) </li>
                           <li>alvorlig allergisk reaktion med shock </li>
                           <li>dissemineret sklerose </li>
                           <li>nerveforstyrrelser (såsom inflammation (betændelse) i synsnerven og Guillain-Barré syndrom, en sygdom, som kan forårsage muskelsvaghed, unormal følesans, prikken i arme og overkrop) </li>
                           <li>hjertestop </li>
                           <li>lungefibrose (dannelse af arvæv i lungerne) </li>
                           <li>perforering af tarmen (hul i tarmvæggen) </li>
                           <li>hepatit (leverbetændelse) </li>
                           <li>genopblussen af hepatitis B-infektion </li>
                           <li>autoimmun hepatit (leverbetændelse forårsaget af kroppens eget immunsystem) </li>
                           <li>inflammation/betændelse i hudens blodkar (kutan vaskulitis) </li>
                           <li>Stevens-Johnsons syndrom (livstruende reaktion med influenza-lignende symptomer og udslæt med blærer) </li>
                           <li>ødem (hævelse) i ansigtet forbundet med allergiske reaktioner </li>
                           <li>betændelseslignende hududslæt (erythema multiforme) </li>
                           <li>lupus-lignende syndrom </li>
                           <li>angioødem (lokal hævelse af huden) </li>
                           <li>lichenoid hudreaktion (kløende rødligt-lilla hududslæt). </li>
                        </ul>
                        <div class="paragraph">
                           <br/>
                           <b>Ikke kendt </b>(hyppigheden kan ikke estimeres ud fra forhåndenværende data)</div>
                        <ul>
                           <li>hepatosplenisk T-cellelymfom (en sjælden form for blodkræft, som ofte er dødelig) </li>
                           <li>Merkelcellekarcinom (en type hudkræft) </li>
                           <li>Kaposis sarkom, en sjælden type kræft, der er forbundet med infektion med humant herpesvirus 8. Kaposis sarkom forekommer oftest som lilla læsioner på huden </li>
                           <li>leversvigt </li>
                           <li>forværring af en tilstand, som kaldes dermatomyositis (ses som hududslæt ledsaget af muskelsvaghed) </li>
                           <li>vægtforøgelse (for de fleste patienters vedkommende var vægtforøgelsen lille). </li>
                        </ul>
                        <div class="paragraph">
                           <br/>Nogle bivirkninger, som er set med adalimumab har ikke symptomer og kan kun opdages ved blodprøver. Disse inkluderer:</div>
                        <div class="paragraph">
                           <br/>
                           <b>Meget almindelige </b>(kan påvirke flere end 1 ud af 10 personer)</div>
                        <ul>
                           <li>nedsat antal hvide blodlegemer </li>
                           <li>nedsat antal røde blodlegemer </li>
                           <li>forhøjede lipider i blodet </li>
                           <li>forhøjede leverenzymer. </li>
                        </ul>
                        <div class="paragraph">
                           <br/>
                           <b>Almindelige </b>(kan påvirke op til 1 ud af 10 personer)</div>
                        <ul>
                           <li>forhøjet antal hvide blodlegemer </li>
                           <li>nedsat antal blodplader </li>
                           <li>forhøjet urinsyre i blodet </li>
                           <li>unormale blodmålinger af natrium </li>
                           <li>lave blodmålinger af calcium </li>
                           <li>lave blodmålinger af fosfat </li>
                           <li>højt blodsukker </li>
                           <li>høje blodmålinger af lactatdehydrogenase </li>
                           <li>tilstedeværelse af autoantistoffer i blodet </li>
                           <li>lavt kalium i blodet. </li>
                        </ul>
                        <div class="paragraph">
                           <br/>
                           <b>Ikke almindelige </b>(kan påvirke op til 1 ud af 100 personer):</div>
                        <ul>
                           <li>forhøjede bilirubinmålinger (leverblodtest) </li>
                        </ul>
                        <div class="paragraph">
                           <br/>
                           <b>Sjældne </b>(kan påvirke op til 1 ud af 1.000 personer):</div>
                        <ul>
                           <li>nedsat antal hvide blodlegemer, røde blodlegemer og blodplader. </li>
                        </ul>
                        <h3>  Indberetning af bivirkninger  </h3>
                        <div class="paragraph">Hvis du oplever bivirkninger, bør du tale med din læge eller apotekspersonalet. Dette gælder også mulige bivirkninger, som ikke er medtaget i denne indlægsseddel.</div>
                        <div class="paragraph">
                           <br/>Du eller dine pårørende kan også indberette bivirkninger direkte til Lægemiddelstyrelsen via de oplysninger der fremgår herunder. Ved at indrapportere bivirkninger kan du hjælpe med at fremskaffe mere information om sikkerheden af dette lægemiddel.</div>
                        <div class="paragraph">
                           <br/>Lægemiddelstyrelsen </div>
                        <div class="paragraph">Axel Heides Gade 1 </div>
                        <div class="paragraph">DK-2300 København S</div>
                        <div class="paragraph">Websted: www.meldenbivirkning.dk</div>
                        <div class="paragraph">
                           <a href="https://www.meldenbivirkning.dk" title="Meld en bivirkning">
								Meld en bivirkning.
							</a>
                        </div>
                     </div>
            </text>
          </section>
          <section>
            <title value="5. Opbevaring"/>
            <code>
              <coding>
                <system value="https://spor.ema.europa.eu/v1/lists/200000029659/terms/"/>
                <code value="200000029913"/>
              </coding>
            </code>
            <text>
              <status value="additional"/><div xmlns="http://www.w3.org/1999/xhtml">
                        <a name="Section5"/>
                        <div> </div>
                        <h2>5. Opbevaring</h2>
                        <div class="paragraph">Opbevar lægemidlet utilgængeligt for børn.</div>
                        <div class="paragraph">
                           <br/>Brug ikke lægemidlet efter den udløbsdato, der står på etiketten/blisterpakningen/pakningen efter EXP. Udløbsdatoen er den sidste dag i den nævnte måned.</div>
                        <div class="paragraph">
                           <br/>Opbevares i køleskab (2 - 8°C). Må ikke nedfryses. </div>
                        <div class="paragraph">
                           <br/>Opbevar den fyldte pen i den ydre karton for at beskytte mod lys.</div>
                        <div class="paragraph">
                           <br/>
                           <b>Alternativ opbevaring:</b>
                        </div>
                        <div class="paragraph">Hvis det er nødvendigt (f.eks. når du rejser), kan Hyrimoz opbevares ved stuetemperatur (op til 25°C) i en periode på højst 21 dage - sørg for at beskytte det mod lys. Når din fyldte pen er taget ud af køleskabet og opbevaret ved stuetemperatur, <b>skal pennen bruges indenfor 21 dage eller kasseres</b>, også selv om den senere lægges tilbage i køleskabet. Du skal registrere den dato, hvor din fyldte pen først tages ud af køleskabet, og den dato efter hvilken, den skal kasseres.</div>
                        <div class="paragraph">
                           <br/>Spørg apotekspersonalet, hvordan du skal bortskaffe medicinrester. Af hensyn til miljøet må du ikke smide medicinrester i afløbet, toilettet eller skraldespanden.</div>
                     </div>
            </text>
          </section>
          <section>
            <title value="6. Pakningsstørrelser og yderligere oplysninger"/>
            <code>
              <coding>
                <system value="https://spor.ema.europa.eu/v1/lists/200000029659/terms/"/>
                <code value="200000029914"/>
              </coding>
            </code>
            <text>
              <status value="additional"/><div xmlns="http://www.w3.org/1999/xhtml">
                        <a name="Section6"/>
                        <div> </div>
                        <h2>6. Pakningsstørrelser og yderligere oplysninger</h2>
                        <h3>  Hyrimoz indeholder  </h3>
                        <ul>
                           <li>Aktivt stof: adalimumab. Hver fyldt pen indeholder 40 mg adalimumab i 0,8 ml opløsning. </li>
                           <li>Øvrige indholdsstoffer: adipinsyre, citronsyremonohydrat, natriumchlorid, mannitol, polysorbat 80, saltsyre, natriumhydroxid og vand til injektionsvæsker. </li>
                        </ul>
                        <h3>  Udseende og pakningsstørrelser  </h3>
                        <div class="paragraph">Hyrimoz 40 mg injektionsvæske, opløsning (injektion) i fyldt pen leveres som en 0,8 ml klar til lettere opaliserende, farveløs til let gullig injektionsvæske.</div>
                        <div class="paragraph">
                           <br/>Hyrimoz leveres i en fyldt engangssprøjte samlet til en trekantformet pen med transparent vindue og etiket (SensoReady pen). Sprøjten inden i pennen er lavet af type I-glas med en kanyle i rustfrit stål og en indre kanylehætte i gummi indeholdende 0,8 ml injektionsvæske.</div>
                        <div class="paragraph">
                           <br/>Pakningerne indeholder 1 og 2 fyldte penne med Hyrimoz.<br/>Multipakninger indeholder 6 (3 pakninger a 2) fyldte penne med Hyrimoz.</div>
                        <div class="paragraph">
                           <br/>Ikke alle pakningsstørrelser er nødvendigvis markedsført.<br/>Hyrimoz findes som en fyldt injektionssprøjte og en fyldt pen (SensoReady).</div>
                     </div>
            </text>
            <section>
              <title value="Indehaver af markedsføringstilladelsen og fremstiller"/>
              <code>
                <coding>
                  <system value="https://spor.ema.europa.eu/v1/lists/200000029659/terms/"/>
                  <code value="200000029917"/>
                </coding>
              </code>
              <text>
                <status value="additional"/><div xmlns="http://www.w3.org/1999/xhtml">
                           <h2>Indehaver af markedsføringstilladelsen og fremstiller</h2>
                           <h3>  Indehaver af markedsføringstilladelsen  </h3>
                           <div class="paragraph">Sandoz GmbH</div>
                           <div class="paragraph">Biochemiestr. 10</div>
                           <div class="paragraph">6250 Kundl</div>
                           <div class="paragraph">Østrig</div>
                           <h3>  Fremstiller  </h3>
                           <div class="paragraph">Sandoz GmbH Schaftenau</div>
                           <div class="paragraph">Biochemiestr. 10</div>
                           <div class="paragraph">6336 Langkampfen</div>
                           <div class="paragraph">Østrig<br/>
                              <br/>Hvis du ønsker yderligere oplysninger om dette lægemiddel, skal du henvende dig til den lokale repræsentant for indehaveren af markedsføringstilladelsen: <br/>
                              <br/>
                              <b>Sandoz A/S </b>
                              <br/>Tlf: +45 63 95 10 00</div>
                           <h3>  Andre informationskilder  </h3>
                           <div class="paragraph">Du kan finde yderligere oplysninger om dette lægemiddel på Det Europæiske Lægemiddelagenturs hjemmeside: http://www.ema.europa.eu.</div>
                        </div>
              </text>
            </section>
            <section>
              <title value="Denne indlægsseddel blev senest ændret 06/2021"/>
              <code>
                <coding>
                  <system value="https://spor.ema.europa.eu/v1/lists/200000029659/terms/"/>
                  <code value="200000029919"/>
                </coding>
              </code>
              <text>
                <status value="additional"/><div xmlns="http://www.w3.org/1999/xhtml">
                           <h2>Denne indlægsseddel blev senest ændret 06/2021</h2>
                        </div>
              </text>
            </section>
            <section>
              <title value="7. 7. Brugsvejledning"/>
              <code>
                <coding>
                  <system value="https://spor.ema.europa.eu/v1/lists/200000029659/terms/"/>
                  <code value="200000029920"/>
                </coding>
              </code>
              <text>
                <status value="additional"/><div xmlns="http://www.w3.org/1999/xhtml">
                           <a name="Section8"/>
                           <div> </div>
                           <h2>7. 7. Brugsvejledning</h2>
                           <div class="paragraph">For at undgå infektioner og for at sikre, at du bruger medicinen korrekt, er det vigtigt, at du følger denne vejledning.</div>
                           <div class="paragraph">
                              <br/>Sørg for at læse, forstå og følge denne brugsvejledning, før du injicerer Hyrimoz. Din læge viser dig, hvordan du skal forberede og injicere Hyrimoz korrekt med den fyldte pen, inden du bruger det for første gang. Tal med din læge, hvis du har nogen spørgsmål.<br/>
                              <br/>
                              <b>Din Hyrimoz fyldte SensoReady pen til engangsbrug</b>
                           </div>
                           <div class="paragraph">
                              <img src="#175114" alt="Hyrimoz Sandoz GmbH injektionsvæske, opløsning i fyldt pen 40 mg"/>
                           </div>
                           <div class="paragraph"> </div>
                           <div class="paragraph">I <b>Figur A </b>er pennen vist med hætten fjernet. Fjern ikke hætten, før du er klar til at injicere.</div>
                           <h3>  Det er vigtigt, at du:  </h3>
                           <ul>
                              <li>
                                 <b>ikke åbner </b>den ydre emballage, før du er klar til at bruge pennen </li>
                              <li>
                                 <b>ikke bruger </b>pennen, hvis enten forseglingen på den ydre emballage eller sikkerhedsforseglingen på pennen er itu. </li>
                              <li>
                                 <b>aldrig efterlader </b>pennen uden opsyn, hvor andre kan komme i kontakt med den. </li>
                              <li>hvis du taber pennen, så <b>brug den ikke</b>, hvis den ser ud til at være beskadiget, eller hvis du tabte den, uden at hætten var på. </li>
                              <li>injicer Hyrimoz 15-30 minutter efter, at du har taget det ud af køleskabet for at få en mere behagelig injektion. </li>
                              <li>smid den brugte pen bort, straks efter at du har brugt den. <b>Brug ikke pennen igen</b>. Se &quot;<b>8. Bortskaffelse af brugte penne</b>&quot; i slutningen af denne brugsvejledning. </li>
                           </ul>
                           <h3>  Sådan skal du opbevare din pen:  </h3>
                           <ul>
                              <li>Opbevar din pen i pakningen i et køleskab, mellem 2 °C og 8 °C. </li>
                              <li>Hvis det er nødvendigt (f.eks. når du rejser), kan Hyrimoz opbevares ved stuetemperatur (op til 25 °C) i en periode på højst 21 dage - sørg for at beskytte den mod lys. Når pennen er taget ud af køleskabet og har været opbevaret ved stuetemperatur, skal pennen <b>bruges indenfor 21 dage eller kasseres</b>, også selv om den senere lægges tilbage i køleskabet. Du skal registrere den dato, hvor pennen først tages ud af køleskabet, og den dato efter hvilken, den skal kasseres. </li>
                              <li>Opbevar din pen i den originale pakning, indtil du er klar til at bruge dem, for at beskytte dem mod lys. </li>
                              <li>Opbevar ikke din pen i ekstrem varme eller kulde. </li>
                              <li>Din pen må ikke nedfryses. </li>
                           </ul>
                           <div class="paragraph">
                              <br/>
                              <b>Hyrimoz og andre lægemidler skal opbevares uden for børns rækkevidde.</b>
                           </div>
                           <h3>  Hvad skal du bruge til din injektion?  </h3>
                           <div class="paragraph">Læg følgende ting på et rent og fladt underlag.</div>
                           <div class="paragraph">
                              <br/>I din pakning finder du:</div>
                           <ul>
                              <li>Hyrimoz fyldt(e) Senso-Ready pen(ne) (se <b>Figur A</b>). Hver pen indeholder 40 mg/0,8 ml Hyrimoz. </li>
                           </ul>
                           <div class="paragraph">
                              <br/>Følgende er ikke inkluderet i din pakning (se <b>Figur B</b>):</div>
                           <ul>
                              <li>Alkoholserviet </li>
                              <li>Bomuldsvatkugle eller gazebind </li>
                              <li>Kanyleboks </li>
                           </ul>
                           <div class="paragraph"> </div>
                           <div class="paragraph">
                              <img src="#175115" alt="Hyrimoz Sandoz GmbH injektionsvæske, opløsning i fyldt pen 40 mg"/>
                           </div>
                           <div class="paragraph"> </div>
                           <div class="paragraph">Se &quot;<b>8. Bortskaffelse af brugte penne</b>&quot; i slutningen af denne brugsvejledning.</div>
                           <h3>  Før injektion  </h3>
                           <div class="paragraph">
                              <b>Forberedelse af pennen</b>
                           </div>
                           <ul>
                              <li>For at få en mere behagelig injektion, kan du tage Hyrimoz ud af køleskabet 15-30 minutter før, du injicerer det, så det kan nå at få stuetemperatur. </li>
                              <li>Se godt efter i vinduet. Opløsningen skal være farveløs til let gullig og klar til let opaliserende. <b>Brug den ikke</b>, hvis du ser partikler og/eller misfarvning. Hvis du er bekymret over, hvordan opløsningen ser ud, så kontakt apotekspersonalet for at få hjælp.<br/>
                                 <img src="#175116" alt="Hyrimoz Sandoz GmbH injektionsvæske, opløsning i fyldt pen 40 mg"/>
                              </li>
                              <li>Kontroller udløbsdatoen (EXP) på din pen. Brug den ikke efter den angivne udløbsdato. </li>
                              <li>Brug den ikke, hvis sikkerhedsforseglingen er brudt. </li>
                           </ul>
                           <div class="paragraph">
                              <br/>
                              <b>Kontakt dit apotekspersonale, hvis pennen ikke kan klare alle ovenstående tjek.</b>
                           </div>
                           <div class="paragraph"> </div>
                           <div class="paragraph">
                              <b>1. Valg af injektionsstedet: </b>
                           </div>
                           <ul>
                              <li>Anbefalet injektionssted er på forsiden af dine lår. Du kan også bruge nederste del af maven men ikke i et område i en omkreds på 5 cm rundt om din navle (se <b>Figur D</b>).<br/>
                                 <img src="#175117" alt="Hyrimoz Sandoz GmbH injektionsvæske, opløsning i fyldt pen 40 mg"/>
                              </li>
                              <li>Vælg et andet område, hver gang du giver dig selv en injektion. </li>
                              <li>Injicer ikke i et område, hvor huden er øm, har blå mærker, er rød, skæller eller er hård. Undgå områder med ar eller strækmærker. Hvis du har psoriasis, skal du IKKE injicere direkte i områder med plaque-psoriasis. </li>
                           </ul>
                           <div class="paragraph"> </div>
                           <div class="paragraph">
                              <b>2. Rensning af injektionsstedet: </b>
                           </div>
                           <ul>
                              <li>Vask dine hænder grundigt med sæbe og vand. </li>
                              <li>Rens injektionsstedet med en alkoholserviet ved hjælp af cirklende bevægelser. Lad det tørre, før du injicerer (se <b>Figur E</b>).<br/>
                                 <img src="#175118" alt="Hyrimoz Sandoz GmbH injektionsvæske, opløsning i fyldt pen 40 mg"/>
                              </li>
                              <li>Rør ikke ved det rensede område, før du injicerer. </li>
                           </ul>
                           <div class="paragraph"> </div>
                           <div class="paragraph">
                              <b>3. Aftagning af pennens hætte: </b>
                           </div>
                           <ul>
                              <li>Fjern først hætten, når du er klat til at bruge pennen. </li>
                              <li>Drej hætten af i pilenes retning (se <b>Figur F</b>).<br/>
                                 <img src="#175119" alt="Hyrimoz Sandoz GmbH injektionsvæske, opløsning i fyldt pen 40 mg"/>
                              </li>
                              <li>Når hætten er fjernet, så smid den bort. <b>Prøv ikke at sætte hætten på igen</b>. </li>
                              <li>Brug pennen inden for 5 minutter efter, at du har fjernet hætten. </li>
                              <li>Måske ser du et par dråber væske komme ud af kanylen. Det er normalt. </li>
                           </ul>
                           <div class="paragraph"> </div>
                           <div class="paragraph">
                              <b>4. Sådan holdes pennen: </b>
                           </div>
                           <ul>
                              <li>Hold din pen i en vinkel på 90° mod det rensede injektionssted (se <b>Figur G</b>).<br/>
                                 <img src="#175121" alt="Hyrimoz Sandoz GmbH injektionsvæske, opløsning i fyldt pen 40 mg"/>
                                 <br/>
                                 <img src="#175120" alt="Hyrimoz Sandoz GmbH injektionsvæske, opløsning i fyldt pen 40 mg"/>
                              </li>
                           </ul>
                           <h3>  Din injektion  </h3>
                           <div class="paragraph"> </div>
                           <div class="paragraph">
                              <b>Læs dette, før du injicerer</b>
                           </div>
                           <div class="paragraph">
                              <br/>Mens du injicerer, vil du høre <b>2 høje klik</b>:</div>
                           <ul>
                              <li>Det <b>første klik </b>betyder, at injektionen er <b>begyndt</b>. </li>
                              <li>Flere sekunder senere vil det <b>andet klik </b>betyde, at injektionen <b>næsten </b>er færdig. </li>
                           </ul>
                           <div class="paragraph">
                              <br/>Du skal holde pennen fast mod huden, indtil du ser en <b>grøn indikator </b>fylde vinduet og holde op med at bevæge sig.</div>
                           <div class="paragraph"> </div>
                           <div class="paragraph">
                              <b>5. Påbegynd din injektion: </b>
                           </div>
                           <ul>
                              <li>Tryk din pen fast mod huden for at påbegynde injektionen (se <b>Figur H</b>).<br/>
                                 <img src="#175122" alt="Hyrimoz Sandoz GmbH injektionsvæske, opløsning i fyldt pen 40 mg"/>
                              </li>
                              <li>Det <b>første klik </b>betyder, at injektionen er begyndt. </li>
                              <li>
                                 <b>Bliv ved med at holde </b>pennen fast mod huden. </li>
                              <li>Den grønne indikator viser, hvordan injektionen skrider frem. </li>
                           </ul>
                           <div class="paragraph"> </div>
                           <div class="paragraph">
                              <b>6. Afslut din injektion: </b>
                           </div>
                           <ul>
                              <li>Lyt efter det <b>andet klik</b>. Det indikerer, at injektionen <b>næsten </b>er færdig. </li>
                              <li>Kontroller, at den grønne indikator fylder vinduet og er holdt op med at bevæge sig (se <b>Figur I</b>).<br/>
                                 <img src="#175123" alt="Hyrimoz Sandoz GmbH injektionsvæske, opløsning i fyldt pen 40 mg"/>
                              </li>
                              <li>Pennen kan nu fjernes. </li>
                           </ul>
                           <h3>  Efter din injektion  </h3>
                           <div class="paragraph">
                              <b>7. Kontroller, at den grønne indikator fylder vinduet (se Figur J): </b>
                           </div>
                           <div class="paragraph">
                              <img src="#175124" alt="Hyrimoz Sandoz GmbH injektionsvæske, opløsning i fyldt pen 40 mg"/>
                           </div>
                           <ul>
                              <li>Det betyder, at medicinen er indgivet. Kontakt din læge, hvis du ikke kan se den grønne indikator. </li>
                              <li>Der kan være en lille smule blod på injektionsstedet. Du kan presse en vatkugle eller et gazebind på injektionsstedet og holde det fast i 10 sekunder. Gnid ikke på injektionsstedet. Du kan dække injektionsstedet med et lille plaster, hvis det er nødvendigt. </li>
                           </ul>
                           <div class="paragraph"> </div>
                           <div class="paragraph">
                              <b>8. Bortskaffelse af brugte penne: </b>
                           </div>
                           <ul>
                              <li>De brugte penne bortskaffes i en kanyleboks (lukkelig, brudfast beholder). Pennene må aldrig genbruges af hensyn til sikkerheden for dig og andre.<br/>
                                 <img src="#175125" alt="Hyrimoz Sandoz GmbH injektionsvæske, opløsning i fyldt pen 40 mg"/>
                              </li>
                              <li>Spørg apotekspersonalet, hvordan du skal bortskaffe medicinrester. Af hensyn til miljøet må du ikke smide medicinrester i afløbet, toilettet eller skraldespanden. </li>
                           </ul>
                           <div class="paragraph"> </div>
                           <div class="paragraph">
                              <b>Hvis du har nogen spørgsmål, så tal med en læge, apotekspersonalet eller en sygeplejerske, som kender Hyrimoz.</b>
                           </div>
                        </div>
              </text>
              <entry>
                <reference value="#175114"/>
              </entry>
              <entry>
                <reference value="#175115"/>
              </entry>
              <entry>
                <reference value="#175116"/>
              </entry>
              <entry>
                <reference value="#175117"/>
              </entry>
              <entry>
                <reference value="#175118"/>
              </entry>
              <entry>
                <reference value="#175119"/>
              </entry>
              <entry>
                <reference value="#175121"/>
              </entry>
              <entry>
                <reference value="#175120"/>
              </entry>
              <entry>
                <reference value="#175122"/>
              </entry>
              <entry>
                <reference value="#175123"/>
              </entry>
              <entry>
                <reference value="#175124"/>
              </entry>
              <entry>
                <reference value="#175125"/>
              </entry>
            </section>
          </section>
        </section>
      </Composition>
    </resource>
  </entry>
  <entry>
    <fullUrl value="https://gravitatehealth.eu/fhir/nordic-epi/MedicinalProductDefinition/IBD-MPD-2"/>
    <resource>
      <MedicinalProductDefinition>
        <id value="IBD-MPD-2"/>
        <meta>
          <profile value="http://hl7.org/fhir/uv/emedicinal-product-info/StructureDefinition/MedicinalProductDefinition-uv-epi"/>
          <profile value="https://gravitatehealth.eu/fhir/nordic-epi-ig/StructureDefinition/Nordic-ePI-MedicinalProductDefinition"/>
        </meta>
        <text>
          <status value="generated"/><div xmlns="http://www.w3.org/1999/xhtml"><a name="MedicinalProductDefinition_IBD-MPD-2"> </a><p><b>Generated Narrative: MedicinalProductDefinition</b><a name="IBD-MPD-2"> </a><a name="hcIBD-MPD-2"> </a></p><div style="display: inline-block; background-color: #d9e0e7; padding: 6px; margin: 4px; border: 1px solid #8da1b4; border-radius: 5px; line-height: 60%"><p style="margin-bottom: 0px">Resource MedicinalProductDefinition &quot;IBD-MPD-2&quot; </p><p style="margin-bottom: 0px">Profiles: <a href="https://build.fhir.org/ig/HL7/emedicinal-product-info//StructureDefinition-MedicinalProductDefinition-uv-epi.html">MedicinalProductDefinition (ePI)</a>, <code>https://gravitatehealth.eu/fhir/nordic-epi-ig/StructureDefinition/Nordic-ePI-MedicinalProductDefinition</code></p></div><p><b>identifier</b>: <code>http://legemiddelverket.no/FEST/LegemiddelMerkevareID</code>/ID_1664C6BC-1486-4845-84F2-E3449D87C8CF</p><h3>Names</h3><table class="grid"><tr><td style="display: none">-</td><td><b>ProductName</b></td></tr><tr><td style="display: none">*</td><td>Hyrimoz inj, oppl 40 mg/penn</td></tr></table></div>
        </text>
        <identifier>
          <system value="http://legemiddelverket.no/FEST/LegemiddelMerkevareID"/>
          <value value="ID_1664C6BC-1486-4845-84F2-E3449D87C8CF"/>
        </identifier>
        <name>
          <productName value="Hyrimoz inj, oppl 40 mg/penn"/>
        </name>
      </MedicinalProductDefinition>
    </resource>
  </entry>
  <entry>
    <fullUrl value="https://gravitatehealth.eu/fhir/nordic-epi/PackagedProductDefinition/IBD-PPD-2"/>
    <resource>
      <PackagedProductDefinition>
        <id value="IBD-PPD-2"/>
        <meta>
          <profile value="http://hl7.org/fhir/uv/emedicinal-product-info/StructureDefinition/PackagedProductDefinition-uv-epi"/>
          <profile value="https://gravitatehealth.eu/fhir/nordic-epi-ig/StructureDefinition/Nordic-ePI-PackagedProductDefinition"/>
        </meta>
        <text>
          <status value="generated"/><div xmlns="http://www.w3.org/1999/xhtml"><a name="PackagedProductDefinition_IBD-PPD-2"> </a><p><b>Generated Narrative: PackagedProductDefinition</b><a name="IBD-PPD-2"> </a><a name="hcIBD-PPD-2"> </a></p><div style="display: inline-block; background-color: #d9e0e7; padding: 6px; margin: 4px; border: 1px solid #8da1b4; border-radius: 5px; line-height: 60%"><p style="margin-bottom: 0px">Resource PackagedProductDefinition &quot;IBD-PPD-2&quot; </p><p style="margin-bottom: 0px">Profiles: <a href="https://build.fhir.org/ig/HL7/emedicinal-product-info//StructureDefinition-PackagedProductDefinition-uv-epi.html">PackagedProductDefinition (ePI)</a>, <code>https://gravitatehealth.eu/fhir/nordic-epi-ig/StructureDefinition/Nordic-ePI-PackagedProductDefinition</code></p></div><p><b>identifier</b>: <code>http://legemiddelverket.no/FEST/LegemiddelPakningID</code>/ID_2435E692-0ED8-4423-8B8C-9E8676D1C7CA, <code>https://farmalogg.no/varenummer</code>/159199, <code>https://pharmaca.fi/vnr</code>/371157</p><p><b>name</b>: Hyrimoz inj, oppl 40 mg/penn</p><p><b>packageFor</b>: <a href="#MedicinalProductDefinition_IBD-MPD-2">See above (MedicinalProductDefinition/IBD-MPD-2)</a></p></div>
        </text>
        <identifier>
          <system value="http://legemiddelverket.no/FEST/LegemiddelPakningID"/>
          <value value="ID_2435E692-0ED8-4423-8B8C-9E8676D1C7CA"/>
        </identifier>
        <identifier>
          <system value="https://farmalogg.no/varenummer"/>
          <value value="159199"/>
        </identifier>
        <identifier>
          <system value="https://pharmaca.fi/vnr"/>
          <value value="371157"/>
        </identifier>
        <name value="Hyrimoz inj, oppl 40 mg/penn"/>
        <packageFor>
          <reference value="MedicinalProductDefinition/IBD-MPD-2"/>
        </packageFor>
      </PackagedProductDefinition>
    </resource>
  </entry>
</Bundle>