{
  "resourceType" : "Bundle",
  "id" : "37812",
  "meta" : {
    "profile" : ["http://hl7.org/fhir/uv/emedicinal-product-info/StructureDefinition/Bundle-uv-epi"]
  },
  "language" : "da",
  "identifier" : {
    "system" : "https://www.indlaegssedler.dk/Indlaegssedler/Indlaegsseddel/",
    "value" : "37812"
  },
  "type" : "document",
  "timestamp" : "2021-09-13T01:01:01Z",
  "entry" : [{
    "fullUrl" : "https://gravitatehealth.eu/fhir/nordic-epi/Composition/37812",
    "resource" : {
      "resourceType" : "Composition",
      "id" : "37812",
      "meta" : {
        "profile" : ["http://hl7.org/fhir/uv/emedicinal-product-info/StructureDefinition/Composition-uv-epi",
        "https://gravitatehealth.eu/fhir/nordic-epi-ig/StructureDefinition/Nordic-ePI-Composition-PIL"]
      },
      "language" : "da",
      "text" : {
        "status" : "generated",
        "div" : "<div xmlns=\"http://www.w3.org/1999/xhtml\" xml:lang=\"da\" lang=\"da\"><a name=\"Composition_37812\"> </a><p><b>Generated Narrative: Composition</b><a name=\"37812\"> </a><a name=\"hc37812\"> </a></p><div style=\"display: inline-block; background-color: #d9e0e7; padding: 6px; margin: 4px; border: 1px solid #8da1b4; border-radius: 5px; line-height: 60%\"><p style=\"margin-bottom: 0px\">Resource Composition &quot;37812&quot;  (Language &quot;da&quot;) </p><p style=\"margin-bottom: 0px\">Profiles: <a href=\"https://build.fhir.org/ig/HL7/emedicinal-product-info//StructureDefinition-Composition-uv-epi.html\">Composition (ePI)</a>, <code>https://gravitatehealth.eu/fhir/nordic-epi-ig/StructureDefinition/Nordic-ePI-Composition-PIL</code></p></div><p><b>identifier</b>: <code>https://www.indlaegssedler.dk/Indlaegssedler/Indlaegsseddel/</code>/37812</p><p><b>status</b>: final</p><p><b>type</b>: 100000155538 <span style=\"background: LightGoldenRodYellow; margin: 4px; border: 1px solid khaki\"> (#100000155538)</span></p><p><b>date</b>: 2021-09-13</p><p><b>author</b>: <span><code>https://medicin.dk</code>/medicin.dk</span></p><p><b>title</b>: Humira 40mg/0,4 ml injektionsvæske, opl. i sprøjte</p><hr/><blockquote><p><b>Generated Narrative: Binary #179697</b><a name=\"179697\"> </a><a name=\"hc179697\"> </a></p><p><b>contentType</b>: image/png</p><p><b>data</b>: (base64 data - 24660 bytes)</p></blockquote><hr/><blockquote><p><b>Generated Narrative: Binary #179698</b><a name=\"179698\"> </a><a name=\"hc179698\"> </a></p><p><b>contentType</b>: image/png</p><p><b>data</b>: (base64 data - 47221 bytes)</p></blockquote><hr/><blockquote><p><b>Generated Narrative: Binary #179699</b><a name=\"179699\"> </a><a name=\"hc179699\"> </a></p><p><b>contentType</b>: image/png</p><p><b>data</b>: (base64 data - 53354 bytes)</p></blockquote><hr/><blockquote><p><b>Generated Narrative: Binary #178239</b><a name=\"178239\"> </a><a name=\"hc178239\"> </a></p><p><b>contentType</b>: image/jpg</p><p><b>data</b>: (base64 data - 13465 bytes)</p></blockquote><hr/><blockquote><p><b>Generated Narrative: Binary #178240</b><a name=\"178240\"> </a><a name=\"hc178240\"> </a></p><p><b>contentType</b>: image/jpg</p><p><b>data</b>: (base64 data - 15526 bytes)</p></blockquote><hr/><blockquote><p><b>Generated Narrative: Binary #178241</b><a name=\"178241\"> </a><a name=\"hc178241\"> </a></p><p><b>contentType</b>: image/jpg</p><p><b>data</b>: (base64 data - 18703 bytes)</p></blockquote><hr/><blockquote><p><b>Generated Narrative: Binary #178242</b><a name=\"178242\"> </a><a name=\"hc178242\"> </a></p><p><b>contentType</b>: image/jpg</p><p><b>data</b>: (base64 data - 20757 bytes)</p></blockquote><hr/><blockquote><p><b>Generated Narrative: Binary #179700</b><a name=\"179700\"> </a><a name=\"hc179700\"> </a></p><p><b>contentType</b>: image/png</p><p><b>data</b>: (base64 data - 31266 bytes)</p></blockquote></div>"
      },
      "contained" : [{
        "resourceType" : "Binary",
        "id" : "179697",
        "contentType" : "image/png",
        "data" : ""
      },
      {
        "resourceType" : "Binary",
        "id" : "179698",
        "contentType" : "image/png",
        "data" : ""
      },
      {
        "resourceType" : "Binary",
        "id" : "179699",
        "contentType" : "image/png",
        "data" : ""
      },
      {
        "resourceType" : "Binary",
        "id" : "178239",
        "contentType" : "image/jpg",
        "data" : ""
      },
      {
        "resourceType" : "Binary",
        "id" : "178240",
        "contentType" : "image/jpg",
        "data" : ""
      },
      {
        "resourceType" : "Binary",
        "id" : "178241",
        "contentType" : "image/jpg",
        "data" : ""
      },
      {
        "resourceType" : "Binary",
        "id" : "178242",
        "contentType" : "image/jpg",
        "data" : ""
      },
      {
        "resourceType" : "Binary",
        "id" : "179700",
        "contentType" : "image/png",
        "data" : ""
      }],
      "identifier" : [{
        "system" : "https://www.indlaegssedler.dk/Indlaegssedler/Indlaegsseddel/",
        "value" : "37812"
      }],
      "status" : "final",
      "type" : {
        "coding" : [{
          "system" : "https://spor.ema.europa.eu/v1/lists/100000155531/terms/",
          "code" : "100000155538"
        }]
      },
      "subject" : [{
        "reference" : "MedicinalProductDefinition/IBD-MPD-4"
      }],
      "date" : "2021-09-13",
      "author" : [{
        "identifier" : {
          "system" : "https://medicin.dk",
          "value" : "medicin.dk"
        }
      }],
      "title" : "Humira 40mg/0,4 ml injektionsvæske, opl. i sprøjte",
      "section" : [{
        "title" : "Indlægsseddel: Information til patienten",
        "code" : {
          "coding" : [{
            "system" : "https://spor.ema.europa.eu/v1/lists/200000029659/terms/",
            "code" : "200000029894"
          }]
        },
        "text" : {
          "status" : "additional",
          "div" : "<div xmlns=\"http://www.w3.org/1999/xhtml\">\n                     <a name=\"Section0\"/>\n                     <h2>  Indlægsseddel: Information til brugeren  </h2>\n                     <h3>Humira 40 mg injektionsvæske, opløsning i fyldt injektionssprøjte </h3>\n                     <div class=\"paragraph\">adalimumab</div>\n                     <h3>  Læs hele denne indlægsseddel grundigt, inden du begynder at bruge dette lægemiddel, da den indeholder vigtige oplysninger.  </h3>\n                     <ul>\n                        <li>Gem indlægssedlen. Du kan få brug for at læse den igen. </li>\n                        <li>Din læge vil også udlevere et <b>patientkort</b>, der indeholder vigtige sikkerhedsinformationer, som du skal være opmærksom på før og under din behandling med Humira. Opbevar <b>patientkortet </b>på dig. </li>\n                        <li>Spørg lægen eller  apotekspersonalet , hvis der er mere, du vil vide. </li>\n                        <li>Lægen har ordineret Humira til dig personligt. Lad derfor være med at give medicinen til andre.<br/>Det kan være skadeligt for andre, selvom de har samme symptomer, som du har. </li>\n                        <li>Kontakt lægen, apotekspersonalet eller sundhedspersonalet, hvis du får bivirkninger, herunder bivirkninger, som ikke er nævnt i denne indlægsseddel. Se <a href=\"#Section4\" title=\"Anchor link til afsnit - punkt 4\">punkt 4</a>. </li>\n                     </ul>\n                     <div class=\"paragraph\">Se den nyeste indlægsseddel på<a href=\"https://www.indlaegsseddel.dk\" title=\"null\">www.indlaegsseddel.dk</a>\n                     </div>\n                     <h3>  Oversigt over indlægssedlen:  </h3>\n                     <ol>\n                        <li>Virkning og anvendelse </li>\n                        <li>Det skal du vide, før du begynder at tage Humira </li>\n                        <li>Sådan skal du tage Humira </li>\n                        <li>Bivirkninger </li>\n                        <li>Opbevaring </li>\n                        <li>Pakningsstørrelser og yderligere oplysninger </li>\n                        <li>Injektion af Humira </li>\n                     </ol>\n                  </div>"
        },
        "section" : [{
          "title" : "1. Virkning og anvendelse",
          "code" : {
            "coding" : [{
              "system" : "https://spor.ema.europa.eu/v1/lists/200000029659/terms/",
              "code" : "200000029895"
            }]
          },
          "text" : {
            "status" : "additional",
            "div" : "<div xmlns=\"http://www.w3.org/1999/xhtml\">\n                        <a name=\"Section1\"/>\n                        <div>\u00a0</div>\n                        <h2>1. Virkning og anvendelse</h2>\n                        <div class=\"paragraph\">Humira indeholder det aktive stof adalimumab. </div>\n                        <div class=\"paragraph\">\u00a0</div>\n                        <div class=\"paragraph\">Humira bruges til at behandle </div>\n                        <ul>\n                           <li>Reumatoid artrit </li>\n                           <li>Polyartikulær juvenil idiopatisk artrit </li>\n                           <li>Entesopatirelateret artrit </li>\n                           <li>Ankyloserende spondylitis </li>\n                           <li>Aksial spondyloartritis uden radiografiske tegn på ankyloserende spondylitis </li>\n                           <li>Psoriasisartrit </li>\n                           <li>Plaque-psoriasis </li>\n                           <li>Hidrosadenitis suppurativa </li>\n                           <li>Crohns sygdom </li>\n                           <li>Colitis ulcerosa </li>\n                           <li>Ikke-infektiøs uveitis </li>\n                        </ul>\n                        <div class=\"paragraph\">Det aktive stof i Humira, adalimumab, er et humant monoklonalt antistof. Monoklonale antistoffer er proteiner, som binder til et bestemt mål.</div>\n                        <div class=\"paragraph\">\n                           <br/>Målet for adalimumab er et protein kaldet tumornekrosefaktor (TNFα) som er involveret i immun (forsvars) systemet og er til stede i øgede mængder i de inflammatoriske sygdomme nævnt ovenfor.Ved at binde sig til TNFα reducerer Humira den inflammatoriske proces i disse sygdomme.</div>\n                        <div class=\"paragraph\">\u00a0</div>\n                        <div class=\"paragraph\">\n                           <b>Reumatoid artrit </b>\n                        </div>\n                        <div class=\"paragraph\">Reumatoid artrit er en betændelsessygdom i leddene.</div>\n                        <div class=\"paragraph\">\n                           <br/>Humira bruges til at behandle moderat til alvorlig reumatoid artrit hos voksne. Du vil evt. først få andre sygdomsmodificerende antireumatiske lægemidler, såsom methotrexat. Hvis du ikke responderer tilstrækkeligt på disse lægemidler, kan du få Humira.</div>\n                        <div class=\"paragraph\">\n                           <br/>Humira kan også anvendes til behandling af alvorlig aktiv og progressiv reumatoid artrit, der ikke tidligere er behandlet med methotrexat.</div>\n                        <div class=\"paragraph\">\n                           <br/>Humira kan nedsætte hastigheden for ødelæggelse i leddene forårsaget af den inflammatoriske sygdom og kan hjælpe dem til at kunne bevæges mere frit.</div>\n                        <div class=\"paragraph\">\n                           <br/>Din læge vil beslutte, om Humira skal anvendes sammen med methotrexat eller alene.</div>\n                        <div class=\"paragraph\">\u00a0</div>\n                        <div class=\"paragraph\">\n                           <b>Polyartikulær juvenil idiopatisk artrit </b>\n                        </div>\n                        <div class=\"paragraph\">\u00a0</div>\n                        <div class=\"paragraph\">Polyartikulær juvenil idiopatisk artrit er en inflammatorisk sygdom i leddene.</div>\n                        <div class=\"paragraph\">\n                           <br/>Humira bruges til at behandle polyartikulær juvenil idiopatisk artrit hos patienter fra 2 år. Du skal først behandles med anden sygdomsdæmpende medicin såsom methotrexat. Hvis du ikke reagerer tilstrækkeligt godt på disse lægemidler, vil du få Humira.</div>\n                        <div class=\"paragraph\">\n                           <br/>Din læge vil beslutte, om Humira skal anvendes sammen med methotrexat eller alene.</div>\n                        <div class=\"paragraph\">\u00a0</div>\n                        <div class=\"paragraph\">\n                           <b>Entesopatirelateret artrit </b>\n                        </div>\n                        <div class=\"paragraph\">\u00a0</div>\n                        <div class=\"paragraph\">Entesopatirelateret artrit er en inflammatorisk sygdom i leddene og de steder, hvor senerne hæfter på knoglen.</div>\n                        <div class=\"paragraph\">\n                           <br/>Humira bruges til at behandle entesopatirelateret artrit hos patienter fra 6 år. Du skal først behandles med anden sygdomsdæmpende medicin såsom methotrexat. Hvis du ikke reagerer tilstrækkeligt godt på disse lægemidler, vil du få Humira.</div>\n                        <div class=\"paragraph\">\u00a0</div>\n                        <div class=\"paragraph\">\n                           <b>Ankyloserende spondylitis og aksial spondyloartritis uden radiografiske tegn på ankyloserende spondylitis </b>\n                        </div>\n                        <div class=\"paragraph\">\u00a0</div>\n                        <div class=\"paragraph\">Ankyloserende spondylitis og aksial spondyloartritis uden radiografiske tegn på ankyloserende spondylitis er en inflammatorisk (betændelseslignende) sygdom i rygsøjlen.</div>\n                        <div class=\"paragraph\">\n                           <br/>Humira bruges til at behandle alvorlig ankyloserende spondylitis og aksial spondyloartritis uden radiografiske tegn på ankyloserende spondylitis hos voksne. Du vil først få anden medicin. Hvis du ikke reagerer godt nok på denne medicin, kan du få Humira.</div>\n                        <div class=\"paragraph\">\u00a0</div>\n                        <div class=\"paragraph\">\n                           <b>Psoriasisartrit </b>\n                        </div>\n                        <div class=\"paragraph\">Psoriasisartrit er en betændelsessygdom i leddene, som er forbundet med psoriasis.</div>\n                        <div class=\"paragraph\">\n                           <br/>Humira bruges til at behandle psoriasisartrit hos voksne. Humira kan nedsætte hastigheden for ødelæggelse i leddene forårsaget af sygdommen og kan hjælpe dem til at bevæge sig mere frit. Du vil først få anden medicin. Hvis du ikke reagerer godt nok på denne medicin, kan du få Humira.</div>\n                        <div class=\"paragraph\">\u00a0</div>\n                        <div class=\"paragraph\">\n                           <b>Plaque-psoriasis hos voksne og børn </b>\n                        </div>\n                        <div class=\"paragraph\">\u00a0</div>\n                        <div class=\"paragraph\">Plaque-psoriasis er en hudlidelse, som forårsager røde, skællende, skorpede pletter på huden dækket med sølvfarvede skæl. Plaque-psoriasis kan også påvirke neglene. Det får dem til at smuldre, blive fortykket og løfte fra neglelejet, hvilket kan være meget smertefuldt.</div>\n                        <div class=\"paragraph\">\n                           <br/>Humira bruges til at behandle</div>\n                        <ul>\n                           <li>moderat til alvorlig kronisk plaque-psoriasis hos voksne og </li>\n                           <li>alvorlig kronisk plaque-psoriasis hos børn og unge i alderen 4 til 17 år, hos hvem lokal behandling og lysbehandlinger enten ikke har virket godt nok eller ikke er egnede. </li>\n                        </ul>\n                        <div class=\"paragraph\">\n                           <b>Hidrosadenitis suppurativa </b>\n                        </div>\n                        <div class=\"paragraph\">\u00a0</div>\n                        <div class=\"paragraph\">Hidrosadenitis suppurativa (kaldes somme tider svedkirtelbetændelse) er en kronisk, ofte smertefuld betændelseslignende (inflammatorisk) hudsygdom. Symptomerne kan være ømme knuder i huden (noduli) og abscesser (bylder), som kan udtømme pus. Sygdommen påvirker oftest bestemte områder af huden, såsom under brystet, i armhulerne, på inderlårerne, i lyskeområdet og på balderne. Der kan også forekomme ar i de berørte områder.</div>\n                        <div class=\"paragraph\">\n                           <br/>Humira bruges til at behandle</div>\n                        <ul>\n                           <li>moderat til alvorlig hidrosadenitis suppurativa hos voksne og </li>\n                           <li>moderat til alvorlig hidrosadenitis suppurativa hos unge fra 12 til 17 år. </li>\n                        </ul>\n                        <div class=\"paragraph\">Humira kan nedsætte antallet af knuder og bylder og lindre den smerte, som ofte er forbundet med sygdommen. Du kan blive tilbudt anden medicin først. Hvis du ikke har tilstrækkelig effekt af den medicin, vil du blive tilbudt Humira.</div>\n                        <div class=\"paragraph\">\u00a0</div>\n                        <div class=\"paragraph\">\n                           <b>Crohns sygdom </b>\n                        </div>\n                        <div class=\"paragraph\">\u00a0</div>\n                        <div class=\"paragraph\">Crohns sygdom er en inflammatorisk sygdom i mave-tarm-kanalen. Humira bruges til at behandle</div>\n                        <ul>\n                           <li>moderat til alvorlig Crohns sygdom hos voksne og </li>\n                           <li>moderat til alvorlig Crohns sygdom hos børn i alderen 6-17 år. </li>\n                        </ul>\n                        <div class=\"paragraph\">Du vil du først få anden medicin. Hvis du ikke har tilstrækkelig effekt af den medicin, vil du blive tilbudt Humira.</div>\n                        <div class=\"paragraph\">\u00a0</div>\n                        <div class=\"paragraph\">\n                           <b>Colitis ulcerosa </b>\n                        </div>\n                        <div class=\"paragraph\">\u00a0</div>\n                        <div class=\"paragraph\">Colitis ulcerosa er en inflammatorisk (betændelseslignende) sygdom i tyktarmen</div>\n                        <div class=\"paragraph\">\n                           <br/>Humira bruges til at behandle </div>\n                        <ul>\n                           <li>moderat til alvorlig colitis ulcerosa hos voksne. </li>\n                           <li>moderat til alvorlig colitis ulcerosa hos børn og unge i alderen 6 til 17 år </li>\n                        </ul>\n                        <div class=\"paragraph\">Du vil først få anden medicin. Hvis du ikke har tilstrækkelig virkning af denne medicin, kan du få Humira.</div>\n                        <div class=\"paragraph\">\u00a0</div>\n                        <div class=\"paragraph\">\n                           <b>Ikke-infektiøs uveitis </b>\n                        </div>\n                        <div class=\"paragraph\">\u00a0</div>\n                        <div class=\"paragraph\">Ikke-infektiøs uveitis er en betændelseslignende (inflammatorisk) sygdom, som påvirker bestemte dele af øjet.</div>\n                        <div class=\"paragraph\">\n                           <br/>Humira bruges til at behandle</div>\n                        <ul>\n                           <li>voksne med ikke-infektiøs uveitis (regnbuehindebetændelse), som påvirker den bagerste del af øjet </li>\n                           <li>børn fra 2 år med kronisk ikke-infektiøs sygdom, som påvirker forreste del af øjet </li>\n                        </ul>\n                        <div class=\"paragraph\">\u00a0</div>\n                        <div class=\"paragraph\">Inflammationen kan føre til nedsat syn og/eller fluer i øjet (sværm af uklarheder i øjet, som bevæger sig i synsfeltet). Humira virker ved at reducere denne inflammation.</div>\n                        <div class=\"paragraph\">\n                           <br/>Du vil du først få anden medicin. Hvis du ikke har tilstrækkelig effekt af den medicin, vil du blive tilbudt Humira.</div>\n                     </div>"
          }
        },
        {
          "title" : "2. Det skal du vide, før du begynder at tage Humira",
          "code" : {
            "coding" : [{
              "system" : "https://spor.ema.europa.eu/v1/lists/200000029659/terms/",
              "code" : "200000029896"
            }]
          },
          "text" : {
            "status" : "additional",
            "div" : "<div xmlns=\"http://www.w3.org/1999/xhtml\">\n                        <a name=\"Section2\"/>\n                        <div>\u00a0</div>\n                        <h2>2. Det skal du vide, før du begynder at tage Humira</h2>\n                        <h3>  Tag ikke Humira  </h3>\n                        <ul>\n                           <li>Hvis du er allergisk over for adalimumab eller et af de øvrige indholdsstoffer (angivet i <a href=\"#Section6\" title=\"Anchor link til afsnit - punkt 6\">punkt 6</a>). </li>\n                           <li>Hvis du har aktiv tuberkulose eller andre alvorlige infektioner (se ” Advarsler og forsigtighedsregler”). Det er vigtigt, at du informerer lægen, hvis du har symptomer på infektioner, f.eks. feber, sår, træthedsfornemmelse, tandproblemer. </li>\n                           <li>Hvis du lider af moderat eller alvorlig hjerteinsufficiens. Det er vigtigt at informere lægen, hvis du har eller har haft en alvorlig hjertesygdom (se ” Advarsler og forsigtighedsregler”). </li>\n                        </ul>\n                        <h3>  Advarsler og forsigtighedsregler  </h3>\n                        <div class=\"paragraph\">Kontakt lægen eller apotekspersonalet, før du tager Humira.</div>\n                        <div class=\"paragraph\">\u00a0</div>\n                        <div class=\"paragraph\">\n                           <b>Allergiske reaktioner</b>\n                        </div>\n                        <ul>\n                           <li>Hvis du får allergiske reaktioner med symptomer som trykken i brystet, hvæsende vejrtrækning, svimmelhed, hævelser eller udslæt, så undlad at injicere mere Humira, og kontakt straks lægen, da disse reaktioner i sjældne tilfælde kan være livstruende. </li>\n                        </ul>\n                        <div class=\"paragraph\">\n                           <b>Infektioner</b>\n                        </div>\n                        <ul>\n                           <li>Hvis du har en infektion, herunder langvarig infektion eller en infektion i en bestemt del af kroppen (f.eks. bensår), skal du kontakte din læge, før du begynder at bruge Humira. Kontakt lægen, hvis du er i tvivl. </li>\n                           <li>Infektioner kan opstå lettere under behandling med Humira. Risikoen kan stige, hvis din lungefunktion er svækket. Disse infektioner kan være alvorlige og inkluderer <ul>\n                                 <li>tuberkulose </li>\n                                 <li>infektioner forårsaget af virus, svampe, parasitter eller bakterier </li>\n                                 <li>alvorlig infektion i blodet (sepsis) </li>\n                              </ul>\n                           </li>\n                        </ul>\n                        <div class=\"paragraph\">I sjældne tilfælde kan kan disse infektioner være livstruende. Det er vigtigt at informere lægen, hvis du får symptomer som feber, sår, træthedsfornemmelse eller tandproblemer. Din læge kan bededig om midlertidigt at stoppe med at tage Humira.</div>\n                        <div class=\"paragraph\">\u00a0</div>\n                        <ul>\n                           <li>Fortæl lægen, hvis du har fast bopæl eller rejser i områder, hvor svampeinfektioner (som f.eks. histoplasmose, kokcidioidomykose eller blastomykose) er meget almindelige. </li>\n                           <li>Fortæl lægen, hvis du har haft gentagne infektioner eller andre tilfælde, der forøger risikoen for infektioner. </li>\n                           <li>Hvis du er over 65 år, kan du være mere modtagelig for infektioner, mens du tager Humira. Du og din læge bør være særligt opmærksomme på tegn på infektion, mens du er i behandling med Humira. Det er vigtigt, at du fortæller lægen, hvis du får symptomer på infektion såsom feber, sår, træthedsfornemmelse eller problemer med tænderne. </li>\n                        </ul>\n                        <div class=\"paragraph\">\n                           <b>Tuberkulose</b>\n                        </div>\n                        <ul>\n                           <li>Det er meget vigtigt at informere lægen, hvis du nogensinde selv har haft tuberkulose, eller hvis du har været i tæt kontakt med nogen, som havde tuberkulose. Hvis du har aktiv tuberkulose, må du ikke tage Humira. <ul>\n                                 <li>Eftersom der har været rapporteret tilfælde af tuberkulose hos patienter i behandling med Humira, vil lægen undersøge dig for tegn og symptomer på tuberkulose, før behandling med Humira påbegyndes. Dette vil omfatte en omhyggelig gennemgang af din sygdomshistorie og relevante screeningstest (f. eks. røntgenundersøgelse af lunger og en tuberkulintest). Disse undersøgelser og resultaterne heraf bør registreres på dit <b>patientkort</b>. </li>\n                                 <li>Tuberkulose kan udvikles under behandlingen, også selv om du har fået behandling for at forebygge tuberkulose </li>\n                                 <li>Hvis der viser sig symptomer på tuberkulose (f.eks hoste som ikke forsvinder vægttab, mangel på energi, let feber) eller anden form for infektion under eller efter behandlingen, bør lægen straks informeres. </li>\n                              </ul>\n                           </li>\n                        </ul>\n                        <div class=\"paragraph\">\n                           <b>Hepatitis B</b>\n                        </div>\n                        <ul>\n                           <li>Fortæl lægen, hvis du er bærer af hepatitis B-virus (HBV), hvis du har aktiv HBV, eller hvis du tror, du kan have risiko for at få HBV. <ul>\n                                 <li>Lægen vil teste dig for HBV. Hos bærere af HBV, kan Humira forårsage at virus bliver aktiv igen. </li>\n                                 <li>I sjældne tilfælde, specielt hvis du tager anden medicin, der undertrykker immun- systemet, kan reaktivering af HBV blive livstruende. </li>\n                              </ul>\n                           </li>\n                        </ul>\n                        <div class=\"paragraph\">\n                           <b>Kirurgi og tandlægebehandling</b>\n                        </div>\n                        <ul>\n                           <li>Hvis du skal opereres eller have tandbehandling, bør du informere din læge om, at du tager Humira. Din læge kan anbefale midlertidig afbrydelse af behandlingen. </li>\n                        </ul>\n                        <div class=\"paragraph\">\n                           <b>Demyeliserende sygdom</b>\n                        </div>\n                        <ul>\n                           <li>Hvis du har eller udvikler demyeliniserende sygdom (en sygdom der påvirker det isolerende lag omkring nerverne såsom dissemineret sklerose) vil din læge afgøre om du skal have eller fortsætte med at få Humira. Fortæl straks din læge, hvis du oplever ændringer i dit syn, svaghed i arme eller ben eller følsesløshed eller en snurrende fornemmelse et sted i kroppen. </li>\n                        </ul>\n                        <div class=\"paragraph\">\n                           <b>Vaccinationer</b>\n                        </div>\n                        <ul>\n                           <li>Visse vacciner kan forårsage infektioner og bør ikke gives under Humira-behandling. <ul>\n                                 <li>Tal med lægen, før du får nogen form for vaccine. </li>\n                                 <li>Det anbefales, at børn om muligt får alle planlagte vaccinationer for deres alder, inden de begynder behandling med Humira. </li>\n                                 <li>Hvis du har fået Humira, mens du var gravid, kan dit spædbarn have en højere risiko for at få en sådan infektion i op til ca. fem måneder efter din sidste Humira-dosis under graviditeten. Det er vigtigt, at du fortæller barnets læge og andre sundhedspersoner, at du fik Humira under graviditeten, så de kan beslutte, hvornår dit spædbarn bør vaccineres. </li>\n                              </ul>\n                           </li>\n                        </ul>\n                        <div class=\"paragraph\">\n                           <b>Hjerteinsufficiens</b>\n                        </div>\n                        <ul>\n                           <li>Hvis du har lettere hjerteinsufficiens og behandles med Humira, skal status for din hjerteinsufficiens følges nøje af din læge. Det er vigtigt at informere lægen, hvis du har eller har haft en alvorlig hjertesygdom. Hvis du udvikler nye eller får forværrede symptomer på hjerteinsufficiens (f. eks. stakåndethed eller hævede fødder), skal du kontakte din læge øjeblikkeligt. Din læge vil tage stilling til, om du skal have Humira. </li>\n                        </ul>\n                        <div class=\"paragraph\">\n                           <b>Feber, blå mærker, blødning eller bleghed</b>\n                        </div>\n                        <ul>\n                           <li>Hos nogle patienter vil kroppen ikke producere tilstrækkeligt af de blodlegemer, som bekæmper infektioner eller stopper blødninger. Din læge kan eventuelt beslutte at afbryde behandlingen. Hvis du får feber, som ikke vil forsvinde, let får blå mærker eller bløder meget let eller ser meget bleg ud, skal du omgående henvende dig til din læge. </li>\n                        </ul>\n                        <div class=\"paragraph\">\n                           <b>Kræft</b>\n                        </div>\n                        <ul>\n                           <li>Der er set meget sjældne tilfælde af visse kræfttyper hos patienter, som tager Humira eller andre TNF-hæmmere. <ul>\n                                 <li>Patienter med mere alvorlig reumatoid artrit, som har haft sygdommen i lang tid, kan have øget risiko i forhold til gennemsnittet for at få lymfomer (kræft som påvirker lymfesystemt) og leukæmi (kræft som påvirker blod og knoglemarv). </li>\n                                 <li>Når du tager Humira, kan risikoen for at få et lymfom, leukæmi eller andre former for kræft øges. I sjældne tilfælde er der set en ikke almindelig og alvorlig type af lymfom hos patienter, som tog Humira. Nogle af disse patienter blev også behandlet med azathioprin eller 6-mercaptopurin. </li>\n                                 <li>Fortæl din læge, hvis du får azathioprin eller 6-mercaptopurin sammen med Humira. </li>\n                                 <li>Tilfælde af ikke-melanom hudkræft er set hos patienter, der tager Humira. </li>\n                                 <li>Hvis der kommer nye hudlæsioner under eller efter behandlingen, skal du fortælle det til din læge. </li>\n                              </ul>\n                           </li>\n                           <li>Der har været tilfælde af kræft, der er forskellig fra lymfom hos patienter med en specifik lungesygdom kaldet kronisk obstruktiv lungesygdom (KOL), der var i behandling med en anden TNF-hæmmer. Hvis du har KOL, eller ryger meget, bør du diskutere med din læge, om behandling med en TNF-hæmmer er passende for dig. </li>\n                        </ul>\n                        <div class=\"paragraph\">\n                           <b>Autoimmune sygdomme</b>\n                        </div>\n                        <ul>\n                           <li>I sjældne tilfælde kan behandling med Humira resultere i lupus-lignende syndrom. Fortæl din læge hvis du får symptomer såsom vedvarende uforklarligt udslæt, feber, ledsmerter eller træthed </li>\n                        </ul>\n                        <h3>  Børn og unge  </h3>\n                        <ul>\n                           <li>Vaccinationer: hvis det er muligt, skal dit barn føres ajour med alle vaccinationer, før behandling med Humira startes. </li>\n                        </ul>\n                        <h3>  Brug af anden medicin sammen med Humira  </h3>\n                        <div class=\"paragraph\">Fortæl altid lægen eller apotekspersonalet, hvis du bruger anden medicin, for nylig har brugt anden medicin eller planlægger at bruge anden medicin.</div>\n                        <div class=\"paragraph\">\n                           <br/>På grund af øget risiko for alvorlig infektion, bør du ikke tage Humira sammen med medicin, som indeholder følgende aktive stoffer:</div>\n                        <ul>\n                           <li>anakinra </li>\n                           <li>abatacept </li>\n                        </ul>\n                        <div class=\"paragraph\">Humira kan anvendes sammen med</div>\n                        <ul>\n                           <li>methotrexat </li>\n                           <li>visse sygdomsmodificerende antireumatiske lægemidler (f.eks. sulfasalazin, hydroxychloroquin, leflunomid og guldpræparater til injektion) </li>\n                           <li>steroider eller smertemedicin, herunder non-steroide anti-inflammatoriske lægemidler (NSAIDs). </li>\n                        </ul>\n                        <div class=\"paragraph\">Hvis du har spørgsmål, skal du tale med din læge.</div>\n                        <h3>  Graviditet og amning  </h3>\n                        <ul>\n                           <li>Du bør overveje brugen af passende prævention for at forhindre graviditet og fortsætte brugen mindst 5 måneder efter den sidste behandling med Humira. </li>\n                           <li>Hvis du er gravid, har mistanke, om at du er gravid, eller planlægger at blive gravid, skal du spørge din læge til råds, før du tager dette lægemiddel. </li>\n                           <li>Humira bør kun anvendes under graviditet, hvis det er tydeligvis nødvendigt. </li>\n                           <li>Der var i følge et graviditetsstudie ikke højere risiko for misdannelser, når moderen havde fået Humira under graviditeten, ved sammenligning med mødre med samme sygdom, som ikke havde fået Humira. </li>\n                           <li>Humira kan anvendes under amning </li>\n                           <li>Hvis du har fået Humira, mens du var gravid, kan dit spædbarn have en højere risiko for at få en infektion. </li>\n                           <li>Det er vigtigt, at du fortæller barnets læge og andre sundhedspersoner, at du fik Humira under graviditeten, før dit barn får nogen vaccinationer. For mere information om vacciner, se afsnittet vedrørende ”Advarsler og forsigtighedsregler”. </li>\n                        </ul>\n                        <h3>  Trafik-og arbejdssikkerhed  </h3>\n                        <div class=\"paragraph\">Humira kan i lettere grad påvirke din evne til at føre motorkøretøj, cykle eller betjene maskiner. Du kan få synsforstyrrelser og en fornemmelse af at rummet drejer rundt efter at have taget Humira.</div>\n                     </div>"
          }
        },
        {
          "title" : "3. Sådan skal du tage Humira",
          "code" : {
            "coding" : [{
              "system" : "https://spor.ema.europa.eu/v1/lists/200000029659/terms/",
              "code" : "200000029905"
            }]
          },
          "text" : {
            "status" : "additional",
            "div" : "<div xmlns=\"http://www.w3.org/1999/xhtml\">\n                        <a name=\"Section3\"/>\n                        <div>\u00a0</div>\n                        <h2>3. Sådan skal du tage Humira</h2>\n                        <div class=\"paragraph\">Tag altid Humira nøjagtigt efter lægens eller apotekspersonalets anvisning. Er du i tvivl, så spørg lægen eller apotekspersonalet.</div>\n                        <div class=\"paragraph\">\u00a0</div>\n                        <div class=\"paragraph\">Den anbefalede Humira-dosis for hvert af de godkendte anvendelsesområder er vist nedenfor i tabellen. Din læge kan have udskrevet Humira i en anden styrke, hvis du har behov for en anden dosis.</div>\n                        <div class=\"paragraph\">\u00a0</div>\n                        <table border=\"1\" cellpadding=\"4\" cellspacing=\"0\" width=\"100%\" style=\"border-collapse:collapse;\">\n                           <colgroup/>\n                           <tr>\n                              <td colspan=\"3\" valign=\"top\" align=\"left\">\n                                 <div class=\"paragraph\">\n                                    <b>Reumatoid artrit, psoriasisartrit, ankyloserende spondylitis eller aksial spondyloartritis uden radiografiske tegn på ankyloserende spondylitis</b>\n                                 </div>\n                              </td>\n                           </tr>\n                           <tr>\n                              <td valign=\"top\" align=\"left\">\n                                 <div class=\"paragraph\">\n                                    <b>Alder eller vægt</b>\n                                 </div>\n                              </td>\n                              <td valign=\"top\" align=\"left\">\n                                 <div class=\"paragraph\">\n                                    <b>Hvor meget og hvor tit skal medicinen tages?</b>\n                                 </div>\n                              </td>\n                              <td valign=\"top\" align=\"left\">\n                                 <div class=\"paragraph\">\n                                    <b>Bemærk</b>\n                                 </div>\n                              </td>\n                           </tr>\n                           <tr>\n                              <td valign=\"top\" align=\"left\">\n                                 <div class=\"paragraph\">Voksne</div>\n                              </td>\n                              <td valign=\"top\" align=\"left\">\n                                 <div class=\"paragraph\">40 mg hver anden uge</div>\n                              </td>\n                              <td valign=\"top\" align=\"left\">\n                                 <div class=\"paragraph\">Hvis du har reumatoid artrit, fortsættes med methotrexat under behandling med Humira. Hvis din læge ikke mener, at behandling med methotrexat er hensigtsmæssig, kan Humira anvendes alene</div>\n                                 <div class=\"paragraph\">\u00a0</div>\n                                 <div class=\"paragraph\">Hvis du har reumatoid artrit og ikke får methotrexat i kombination med din Humira- behandling, kan lægen vælge at ordinere Humira 40 mg hver</div>\n                                 <div class=\"paragraph\">uge eller 80 mg hver anden uge.</div>\n                              </td>\n                           </tr>\n                        </table>\n                        <div class=\"paragraph\">\u00a0</div>\n                        <table border=\"1\" cellpadding=\"4\" cellspacing=\"0\" width=\"100%\" style=\"border-collapse:collapse;\">\n                           <colgroup/>\n                           <tr>\n                              <td colspan=\"3\" valign=\"top\" align=\"left\">\n                                 <div class=\"paragraph\">\n                                    <b>Polyartikulær juvenil idiopatisk artrit</b>\n                                 </div>\n                              </td>\n                           </tr>\n                           <tr>\n                              <td valign=\"top\" align=\"left\">\n                                 <div class=\"paragraph\">\n                                    <b>Alder eller vægt</b>\n                                 </div>\n                              </td>\n                              <td valign=\"top\" align=\"left\">\n                                 <div class=\"paragraph\">\n                                    <b>Hvor meget og hvor tit skal medicinen tages?</b>\n                                 </div>\n                              </td>\n                              <td valign=\"top\" align=\"left\">\n                                 <div class=\"paragraph\">\n                                    <b>Bemærk</b>\n                                 </div>\n                              </td>\n                           </tr>\n                           <tr>\n                              <td valign=\"top\" align=\"left\">\n                                 <div class=\"paragraph\">Børn, unge og voksne fra 2 år der vejer 30 kg eller mere</div>\n                              </td>\n                              <td valign=\"top\" align=\"left\">\n                                 <div class=\"paragraph\">40 mg hver anden uge</div>\n                              </td>\n                              <td valign=\"top\" align=\"left\">\n                                 <div class=\"paragraph\">Ikke relevant</div>\n                              </td>\n                           </tr>\n                           <tr>\n                              <td valign=\"top\" align=\"left\">\n                                 <div class=\"paragraph\">Børn og unge fra 2 år der vejer fra 10 kg til mindre end 30 kg</div>\n                              </td>\n                              <td valign=\"top\" align=\"left\">\n                                 <div class=\"paragraph\">20 mg hver anden uge</div>\n                              </td>\n                              <td valign=\"top\" align=\"left\">\n                                 <div class=\"paragraph\">Ikke relevant</div>\n                              </td>\n                           </tr>\n                        </table>\n                        <div class=\"paragraph\">\u00a0</div>\n                        <table border=\"1\" cellpadding=\"4\" cellspacing=\"0\" width=\"50%\" style=\"border-collapse:collapse;\">\n                           <colgroup/>\n                           <tr>\n                              <td colspan=\"3\" valign=\"top\" align=\"left\">\n                                 <div class=\"paragraph\">\n                                    <b>Entesopatirelateret artrit</b>\n                                 </div>\n                              </td>\n                           </tr>\n                           <tr>\n                              <td valign=\"top\" align=\"left\">\n                                 <div class=\"paragraph\">\n                                    <b>Alder eller vægt</b>\n                                 </div>\n                              </td>\n                              <td valign=\"top\" align=\"left\">\n                                 <div class=\"paragraph\">\n                                    <b>Hvor meget og hvor tit skal medicinen tages?</b>\n                                 </div>\n                              </td>\n                              <td valign=\"top\" align=\"left\">\n                                 <div class=\"paragraph\">\n                                    <b>Bemærk</b>\n                                 </div>\n                              </td>\n                           </tr>\n                           <tr>\n                              <td valign=\"top\" align=\"left\">\n                                 <div class=\"paragraph\">Børn, unge og voksne fra 6 år</div>\n                                 <div class=\"paragraph\">der vejer 30 kg eller mere</div>\n                              </td>\n                              <td valign=\"top\" align=\"left\">\n                                 <div class=\"paragraph\">40 mg hver anden uge</div>\n                              </td>\n                              <td valign=\"top\" align=\"left\">\n                                 <div class=\"paragraph\">Ikke relevant</div>\n                              </td>\n                           </tr>\n                           <tr>\n                              <td valign=\"top\" align=\"left\">\n                                 <div class=\"paragraph\">Børn og unge fra 6 år, der vejer fra 15 kg og mindre end 30 kg</div>\n                              </td>\n                              <td valign=\"top\" align=\"left\">\n                                 <div class=\"paragraph\">20 mg hver anden uge</div>\n                              </td>\n                              <td valign=\"top\" align=\"left\">\n                                 <div class=\"paragraph\">Ikke relevant</div>\n                              </td>\n                           </tr>\n                        </table>\n                        <div class=\"paragraph\">\u00a0</div>\n                        <table border=\"1\" cellpadding=\"4\" cellspacing=\"0\" width=\"100%\" style=\"border-collapse:collapse;\">\n                           <colgroup/>\n                           <tr>\n                              <td colspan=\"3\" valign=\"top\" align=\"left\">\n                                 <div class=\"paragraph\">\n                                    <b>Plaque-psoriasis</b>\n                                 </div>\n                              </td>\n                           </tr>\n                           <tr>\n                              <td style=\"width:83%;\" valign=\"top\" align=\"left\">\n                                 <div class=\"paragraph\">\n                                    <b>Alder eller vægt</b>\n                                 </div>\n                              </td>\n                              <td valign=\"top\" align=\"left\">\n                                 <div class=\"paragraph\">\n                                    <b>Hvor meget og hvor tit skal medicinen tages?</b>\n                                 </div>\n                              </td>\n                              <td valign=\"top\" align=\"left\">\n                                 <div class=\"paragraph\">\n                                    <b>Bemærk</b>\n                                 </div>\n                              </td>\n                           </tr>\n                           <tr>\n                              <td style=\"width:83%;\" valign=\"top\" align=\"left\">\n                                 <div class=\"paragraph\">Voksne</div>\n                              </td>\n                              <td valign=\"top\" align=\"left\">\n                                 <div class=\"paragraph\">Startdosis på 80 mg (to 40 mg injektioner på en dag), efterfulgt af 40 mg hver anden uge startende en uge efter den første</div>\n                                 <div class=\"paragraph\">dosis.</div>\n                              </td>\n                              <td valign=\"top\" align=\"left\">\n                                 <div class=\"paragraph\">Hvis du har utilstrækkeligt respons, kan din læge øge dosis til 40 mg hver uge eller 80 mg hver anden uge</div>\n                              </td>\n                           </tr>\n                           <tr>\n                              <td style=\"width:83%;\" valign=\"top\" align=\"left\">\n                                 <div class=\"paragraph\">Børn og unge fra 4 til 17 år, der vejer 30 kg eller mere</div>\n                              </td>\n                              <td valign=\"top\" align=\"left\">\n                                 <div class=\"paragraph\">Startdosis på 40 mg, efterfulgt af 40 mg en uge senere.</div>\n                                 <div class=\"paragraph\">Herefter er den sædvanlige dosis 40 mg hver anden uge.</div>\n                              </td>\n                              <td valign=\"top\" align=\"left\">\n                                 <div class=\"paragraph\">Ikke relevant</div>\n                              </td>\n                           </tr>\n                           <tr>\n                              <td style=\"width:83%;\" valign=\"top\" align=\"left\">\n                                 <div class=\"paragraph\">Børn og unge fra 4 til 17 år, der vejer fra 15 kg og mindre end 30 kg</div>\n                              </td>\n                              <td valign=\"top\" align=\"left\">\n                                 <div class=\"paragraph\">Startdosis på 20 mg, efterfulgt af 20 mg en uge senere.</div>\n                                 <div class=\"paragraph\">Herefter er den sædvanlige dosis 20 mg hver anden uge.</div>\n                              </td>\n                              <td valign=\"top\" align=\"left\">\n                                 <div class=\"paragraph\">Ikke relevant</div>\n                              </td>\n                           </tr>\n                        </table>\n                        <div class=\"paragraph\">\u00a0</div>\n                        <table border=\"1\" cellpadding=\"4\" cellspacing=\"0\" width=\"100%\" style=\"border-collapse:collapse;\">\n                           <colgroup/>\n                           <tr>\n                              <td colspan=\"3\" valign=\"top\" align=\"left\">\n                                 <div class=\"paragraph\">\n                                    <b>Hidrosadenitis suppurativa</b>\n                                 </div>\n                              </td>\n                           </tr>\n                           <tr>\n                              <td valign=\"top\" align=\"left\">\n                                 <div class=\"paragraph\">\n                                    <b>Alder eller vægt</b>\n                                 </div>\n                              </td>\n                              <td valign=\"top\" align=\"left\">\n                                 <div class=\"paragraph\">\n                                    <b>Hvor meget og hvor tit skal medicinen tages?</b>\n                                 </div>\n                              </td>\n                              <td valign=\"top\" align=\"left\">\n                                 <div class=\"paragraph\">\n                                    <b>Bemærk</b>\n                                 </div>\n                              </td>\n                           </tr>\n                           <tr>\n                              <td valign=\"top\" align=\"left\">\n                                 <div class=\"paragraph\">Voksne</div>\n                              </td>\n                              <td valign=\"top\" align=\"left\">\n                                 <div class=\"paragraph\">Startdosis på 160 mg (fire 40 mg injektioner på en dag eller to 40 mg injektioner pr. dag i to på hinanden følgende dage), efterfulgt af en dosis på 80 mg to uger senere (to 40 mg injektioner på samme dag).</div>\n                                 <div class=\"paragraph\">Efter yderligere 2 uger fortsættes med 40 mg hver uge eller 80 mg hver anden uge, som</div>\n                                 <div class=\"paragraph\">foreskrevet af din læge.</div>\n                              </td>\n                              <td valign=\"top\" align=\"left\">\n                                 <div class=\"paragraph\">Det anbefales, at du dagligt vasker de berørte områder med et antiseptisk middel.</div>\n                              </td>\n                           </tr>\n                           <tr>\n                              <td valign=\"top\" align=\"left\">\n                                 <div class=\"paragraph\">Unge fra 12 til 17 år, som vejer 30 kg eller mere</div>\n                              </td>\n                              <td valign=\"top\" align=\"left\">\n                                 <div class=\"paragraph\">Startdosis er 80 mg (to injektioner med 40 mg på samme dag), efterfulgt af 40 mg hver anden uge startende en uge efter den første dosis.</div>\n                              </td>\n                              <td valign=\"top\" align=\"left\">\n                                 <div class=\"paragraph\">Hvis du har utilstrækkeligt respons på Humira 40 mg hver anden uge, kan din læge øge dosis til 40 mg hver uge eller 80 mg hver anden uge.<br/>Det anbefales, at du dagligt vasker de berørte områder med et antiseptisk middel.</div>\n                              </td>\n                           </tr>\n                        </table>\n                        <div class=\"paragraph\">\u00a0</div>\n                        <table border=\"1\" cellpadding=\"4\" cellspacing=\"0\" width=\"100%\" style=\"border-collapse:collapse;\">\n                           <colgroup/>\n                           <tr>\n                              <td colspan=\"3\" valign=\"top\" align=\"left\">\n                                 <div class=\"paragraph\">\n                                    <b>Crohns sygdom</b>\n                                 </div>\n                              </td>\n                           </tr>\n                           <tr>\n                              <td valign=\"top\" align=\"left\">\n                                 <div class=\"paragraph\">\n                                    <b>Alder eller vægt</b>\n                                 </div>\n                              </td>\n                              <td valign=\"top\" align=\"left\">\n                                 <div class=\"paragraph\">\n                                    <b>Hvor meget og hvor tit skal medicinen tages?</b>\n                                 </div>\n                              </td>\n                              <td valign=\"top\" align=\"left\">\n                                 <div class=\"paragraph\">\n                                    <b>Bemærk</b>\n                                 </div>\n                              </td>\n                           </tr>\n                           <tr>\n                              <td valign=\"top\" align=\"left\">\n                                 <div class=\"paragraph\">Børn, unge og voksne fra 6 år, som vejer 40 kg eller mere</div>\n                              </td>\n                              <td valign=\"top\" align=\"left\">\n                                 <div class=\"paragraph\">Startdosis på 80 mg (to 40 mg injektioner på en dag), efterfulgt af 40 mg 2 uger senere.</div>\n                                 <div class=\"paragraph\">Hvis et hurtigere respons er nødvendigt kan din læge ordinere en startdosis på 160 mg (fire 40 mg injektioner på en dag eller to 40 mg injektioner pr. dag i to på hinanden følgende dage), efterfulgt af 80 mg 2 uger senere (to 40 mg injektioner på en dag).</div>\n                                 <div class=\"paragraph\">Herefter er den sædvanlige dosis 40 mg hver anden uge.</div>\n                              </td>\n                              <td valign=\"top\" align=\"left\">\n                                 <div class=\"paragraph\">Din læge kan øge dosis til 40 mg hver uge eller 80 mg hver anden uge.</div>\n                              </td>\n                           </tr>\n                           <tr>\n                              <td valign=\"top\" align=\"left\">\n                                 <div class=\"paragraph\">Børn og unge fra 6 til 17 år, som vejer mindre end 40 kg</div>\n                              </td>\n                              <td valign=\"top\" align=\"left\">\n                                 <div class=\"paragraph\">Startdosis på 40 mg, efterfulgt af 20 mg 2 uger senere.</div>\n                                 <div class=\"paragraph\">Hvis et hurtigere respons er nødvendigt kan din læge ordinere en startdosis på 80 mg (to 40 mg injektioner på en dag), efterfulgt af 40 mg 2 uger senere.</div>\n                                 <div class=\"paragraph\">Herefter er den sædvanlige dosis 20 mg hver anden uge.</div>\n                              </td>\n                              <td valign=\"top\" align=\"left\">\n                                 <div class=\"paragraph\">Din læge kan øge dosis til 20 mg hver uge</div>\n                              </td>\n                           </tr>\n                        </table>\n                        <div class=\"paragraph\">\u00a0</div>\n                        <table border=\"1\" cellpadding=\"4\" cellspacing=\"0\" width=\"100%\" style=\"border-collapse:collapse;\">\n                           <colgroup/>\n                           <tr>\n                              <td colspan=\"3\" valign=\"top\" align=\"left\">\n                                 <div class=\"paragraph\">\n                                    <b>Colitis ulcerosa</b>\n                                 </div>\n                              </td>\n                           </tr>\n                           <tr>\n                              <td valign=\"top\" align=\"left\">\n                                 <div class=\"paragraph\">\n                                    <b>Alder eller vægt</b>\n                                 </div>\n                              </td>\n                              <td valign=\"top\" align=\"left\">\n                                 <div class=\"paragraph\">\n                                    <b>Hvor meget og hvor tit skal medicinen tages?</b>\n                                 </div>\n                              </td>\n                              <td valign=\"top\" align=\"left\">\n                                 <div class=\"paragraph\">\n                                    <b>Bemærk</b>\n                                 </div>\n                              </td>\n                           </tr>\n                           <tr>\n                              <td valign=\"top\" align=\"left\">\n                                 <div class=\"paragraph\">Voksne</div>\n                              </td>\n                              <td valign=\"top\" align=\"left\">\n                                 <div class=\"paragraph\">Startdosis på 160 mg (fire 40 mg injektioner på en dag eller to 40 mg injektioner pr. dag i to på hinanden følgende dage), efterfulgt af 80 mg 2 uger senere (to 40 mg injektioner på en dag).</div>\n                                 <div class=\"paragraph\">Herefter er den sædvanlige dosis 40 mg hver anden uge.</div>\n                              </td>\n                              <td valign=\"top\" align=\"left\">\n                                 <div class=\"paragraph\">Din læge kan øge dosis til 40 mg hver uge eller 80 mg hver anden uge.</div>\n                              </td>\n                           </tr>\n                           <tr>\n                              <td valign=\"top\" align=\"left\">\n                                 <div class=\"paragraph\">Børn og unge fra 6 år, der vejer mindre end 40 kg</div>\n                              </td>\n                              <td valign=\"top\" align=\"left\">\n                                 <div class=\"paragraph\">Startdosis på 80 mg (to 40 mg injektioner på én dag), efterfulgt af 40 mg (én 40 mg injektion) 2 uger senere.</div>\n                              </td>\n                              <td valign=\"top\" align=\"left\">\n                                 <div class=\"paragraph\">Du skal fortsætte med at tage din sædvanlige dosis Humira, også efter du er fyldt 18 år.</div>\n                              </td>\n                           </tr>\n                           <tr>\n                              <td valign=\"top\" align=\"left\">\n                                 <div class=\"paragraph\">Børn og unge fra 6 år, der vejer 40 kg eller mere</div>\n                              </td>\n                              <td valign=\"top\" align=\"left\">\n                                 <div class=\"paragraph\">Startdosis på 160 mg (fire 40 mg injektioner på én dag eller to 40 mg injektioner pr. dag i to på hinanden følgende dage), efterfulgt af 80 mg (to 40 mg injektioner på én dag) 2 uger senere.</div>\n                                 <div class=\"paragraph\">\n                                    <br/>Herefter er den sædvanlige dosis 80 mg hver anden uge</div>\n                              </td>\n                              <td valign=\"top\" align=\"left\">\n                                 <div class=\"paragraph\">Du skal fortsætte med at tage din sædvanlige dosis Humira, også efter du er fyldt 18 år.</div>\n                              </td>\n                           </tr>\n                        </table>\n                        <div class=\"paragraph\">\u00a0</div>\n                        <table border=\"1\" cellpadding=\"4\" cellspacing=\"0\" width=\"100%\" style=\"border-collapse:collapse;\">\n                           <colgroup/>\n                           <tr>\n                              <td colspan=\"3\" valign=\"top\" align=\"left\">\n                                 <div class=\"paragraph\">\n                                    <b>Ikke-infektiøs uveitis</b>\n                                 </div>\n                              </td>\n                           </tr>\n                           <tr>\n                              <td valign=\"top\" align=\"left\">\n                                 <div class=\"paragraph\">\n                                    <b>Alder eller vægt</b>\n                                 </div>\n                              </td>\n                              <td valign=\"top\" align=\"left\">\n                                 <div class=\"paragraph\">\n                                    <b>Hvor meget og hvor tit skal medicinen tages?</b>\n                                 </div>\n                              </td>\n                              <td valign=\"top\" align=\"left\">\n                                 <div class=\"paragraph\">\n                                    <b>Bemærk</b>\n                                 </div>\n                              </td>\n                           </tr>\n                           <tr>\n                              <td valign=\"top\" align=\"left\">\n                                 <div class=\"paragraph\">Voksne</div>\n                              </td>\n                              <td valign=\"top\" align=\"left\">\n                                 <div class=\"paragraph\">Startdosis på 80 mg (to 40 mg injektioner på en dag), efterfulgt af 40 mg hver anden uge med start en uge efter den første dosis.</div>\n                              </td>\n                              <td valign=\"top\" align=\"left\">\n                                 <div class=\"paragraph\">Du kan fortsætte med at bruge kortikosteroider eller andre lægemidler, som påvirker immunsystemet, mens du tager Humira.</div>\n                                 <div class=\"paragraph\">Humira kan også anvendes alene.</div>\n                              </td>\n                           </tr>\n                           <tr>\n                              <td valign=\"top\" align=\"left\">\n                                 <div class=\"paragraph\">Børn og unge fra 2 år der vejer mindre end 30 kg</div>\n                              </td>\n                              <td valign=\"top\" align=\"left\">\n                                 <div class=\"paragraph\">20 mg hver anden uge</div>\n                              </td>\n                              <td valign=\"top\" align=\"left\">\n                                 <div class=\"paragraph\">Din læge kan også ordinere en indledende dosis på 40 mg, som kan administreres en uge før start af den sædvanlige dosis på 20 mg hver anden uge.</div>\n                                 <div class=\"paragraph\">Humira anbefales anvendt sammen med methotrexat.</div>\n                              </td>\n                           </tr>\n                           <tr>\n                              <td valign=\"top\" align=\"left\">\n                                 <div class=\"paragraph\">Børn og unge fra 2 år der vejer mindst 30 kg</div>\n                              </td>\n                              <td valign=\"top\" align=\"left\">\n                                 <div class=\"paragraph\">40 mg hver anden uge</div>\n                              </td>\n                              <td valign=\"top\" align=\"left\">\n                                 <div class=\"paragraph\">Din læge kan også ordinere en indledende dosis på 80 mg, som kan administreres en uge før start af den sædvanlige dosis på 40 mg hver anden uge.</div>\n                                 <div class=\"paragraph\">Humira anbefales anvendt sammen med methotrexat.</div>\n                              </td>\n                           </tr>\n                        </table>\n                        <h3>  Metode og indgivelsesvej  </h3>\n                        <div class=\"paragraph\">Humira indgives ved injektion under huden (subkutan injektion).</div>\n                        <div class=\"paragraph\">\u00a0</div>\n                        <div class=\"paragraph\">\n                           <b>Der findes detaljeret instruktion om injektion af Humira i </b>\n                           <a href=\"#Section0\" title=\"Anchor link til afsnit - pkt. 7\">pkt. 7</a>\n                           <b>”Injektion af Humira”. </b>\n                        </div>\n                        <h3>  Hvis du har taget for meget Humira  </h3>\n                        <div class=\"paragraph\">Hvis du ved en fejltagelse injicerer Humira hyppigere end forskrevet af lægen eller apotekspersonalet, kontakt da lægen eller apotekspersonalet og fortæl dem, at du har taget mere. Tag altid den ydre karton fra medicinen med, også selvom den er tom.</div>\n                        <h3>  Hvis du har glemt at tage Humira  </h3>\n                        <div class=\"paragraph\">Hvis du glemmer at give dig selv en injektion, bør du injicere den næste dosis af Humira, så snart du kommer i tanke om det. Fortsæt dernæst med at injicere næste dosis som planlagt på den oprindeligt fastlagte dag, som om du ikke havde glemt en dosis.</div>\n                        <h3>  Hvis du holder op med at tage Humira  </h3>\n                        <div class=\"paragraph\">Beslutningen om at stoppe med at bruge Humira skal diskuteres med din læge. Dine symptomer kan komme igen, hvis du stopper med at tage Humira.</div>\n                        <div class=\"paragraph\">\u00a0</div>\n                        <div class=\"paragraph\">Spørg lægen eller apotekspersonalet, hvis der er noget, du er i tvivl om.</div>\n                     </div>"
          }
        },
        {
          "title" : "4. Bivirkninger",
          "code" : {
            "coding" : [{
              "system" : "https://spor.ema.europa.eu/v1/lists/200000029659/terms/",
              "code" : "200000029910"
            }]
          },
          "text" : {
            "status" : "additional",
            "div" : "<div xmlns=\"http://www.w3.org/1999/xhtml\">\n                        <a name=\"Section4\"/>\n                        <div>\u00a0</div>\n                        <h2>4. Bivirkninger</h2>\n                        <div class=\"paragraph\">Dette lægemiddel kan som alle andre lægemidler give bivirkninger, men ikke alle får bivirkninger. De fleste bivirkninger er af let til moderat grad. Der kan dog forekomme mere alvorlige bivirkninger, som kræver behandling. Bivirkninger kan forekomme op til mindst 4 måneder efter den sidste Humira injektion.</div>\n                        <h3>  Kontakt omgående lægen, hvis du får følgende symptomer  </h3>\n                        <ul>\n                           <li>alvorligt udslæt, nældefeber eller andre tegn på en allergisk reaktion </li>\n                           <li>hævelser i ansigt, hænder eller fødder </li>\n                           <li>besvær med at trække vejret eller synke </li>\n                           <li>stakåndethed ved fysisk aktivitet eller når du ligger ned, eller hævede fødder </li>\n                        </ul>\n                        <div class=\"paragraph\">\u00a0</div>\n                        <div class=\"paragraph\">\n                           <b>Kontakt lægen så hurtigt som muligt, hvis du får følgende symptomer </b>\n                        </div>\n                        <ul>\n                           <li>tegn på infektion, såsom feber, følelse af sygdom, sår, tandproblemer eller smerter ved vandladning </li>\n                           <li>følelse af svaghed eller træthed </li>\n                           <li>hoste </li>\n                           <li>snurren og prikken </li>\n                           <li>følelsesløshed </li>\n                           <li>dobbeltsyn </li>\n                           <li>svaghed i arme og ben </li>\n                           <li>en bule eller åbent sår, som ikke vil hele </li>\n                           <li>tegn og symptomer, som kan tyde på blodsygdomme så som vedvarende feber, blå mærker, blødning, bleghed </li>\n                        </ul>\n                        <div class=\"paragraph\">Ovennævnte symptomer kan være tegn på følgende bivirkninger, som er observeret ved brug af Humira:</div>\n                        <div class=\"paragraph\">\u00a0</div>\n                        <div class=\"paragraph\">\n                           <b>Meget almindelige </b>(kan påvirke flere end 1 ud af 10 personer) </div>\n                        <ul>\n                           <li>reaktioner ved injektionsstedet (herunder smerter, hævelse, rødme eller kløe) </li>\n                           <li>luftvejsinfektioner (inklusive forkølelse, løbende næse, bihulebetændelse, lungebetændelse) </li>\n                           <li>hovedpine </li>\n                           <li>mavesmerter </li>\n                           <li>kvalme og opkastning </li>\n                           <li>udslæt </li>\n                           <li>muskuloskeletale smerter </li>\n                        </ul>\n                        <div class=\"paragraph\">\u00a0</div>\n                        <div class=\"paragraph\">\n                           <b>Almindelige</b> (kan påvirke op til 1 ud af 10 personer) </div>\n                        <ul>\n                           <li>alvorlige infektioner (inklusive blodforgiftning og influenza) </li>\n                           <li>tarminfektioner (inklusive betændelse i mave og tarm) </li>\n                           <li>hudinfektioner (inklusive bindevævsbetændelse og helvedsild) </li>\n                           <li>øreinfektioner </li>\n                           <li>infektioner i munden (inklusive tandinfektioner og forkølelsessår) </li>\n                           <li>infektioner i kønsvejene </li>\n                           <li>urinvejsinfektion </li>\n                           <li>svampeinfektioner </li>\n                           <li>ledinfektioner </li>\n                           <li>godartede svulster </li>\n                           <li>hudkræft </li>\n                           <li>allergiske reaktioner (inklusive sæsonbestemt allergi) </li>\n                           <li>dehydrering (væskemangel) </li>\n                           <li>humørsvingninger (inklusive depression) </li>\n                           <li>angst </li>\n                           <li>søvnbesvær </li>\n                           <li>følelsesforstyrrelser såsom snurren, prikken eller følelsesløshed </li>\n                           <li>migræne </li>\n                           <li>nerverodskompression (inklusive smerter i den nederste del af ryggen og bensmerter) </li>\n                           <li>synsforstyrrelser </li>\n                           <li>betændelse i øjet </li>\n                           <li>betændelse i øjenlåget og hævede øjne </li>\n                           <li>vertigo (fornemmelse af at snurre rundt) </li>\n                           <li>fornemmelse af hurtige hjerteslag </li>\n                           <li>højt blodtryk </li>\n                           <li>rødmen </li>\n                           <li>blodansamling (ansamling af blod udenfor blodkarrerne) </li>\n                           <li>hoste </li>\n                           <li>astma </li>\n                           <li>kortåndethed </li>\n                           <li>blødning i mave-tarm kanalen </li>\n                           <li>sure opstød (fordøjelsesbesvær, oppustethed, halsbrand); </li>\n                           <li>syrereflukssygdom; </li>\n                           <li>Sjøgrens syndrom (inklusive tørre øjne og tør mund) </li>\n                           <li>kløe </li>\n                           <li>kløende udslæt </li>\n                           <li>blå mærker </li>\n                           <li>inflammation i huden (såsom eksem) </li>\n                           <li>fingernegle og tånegle knækker </li>\n                           <li>øget svedtendens </li>\n                           <li>hårtab </li>\n                           <li>nye udbrud eller forværring af psoriasis </li>\n                           <li>muskelspasmer </li>\n                           <li>blod i urinen </li>\n                           <li>nyreproblemer </li>\n                           <li>brystsmerter </li>\n                           <li>ødem (hævelse) </li>\n                           <li>feber </li>\n                           <li>nedsat antal blodplader med forøget risiko for blødning eller blå mærker </li>\n                           <li>forringet sårheling </li>\n                        </ul>\n                        <div class=\"paragraph\">\u00a0</div>\n                        <div class=\"paragraph\">\n                           <b>Ikke almindelige</b> (kan påvirke op til 1 ud af 100 personer) </div>\n                        <ul>\n                           <li>opportunistiske infektioner (som inkluderere tuberkulose og andre infektioner, som forekommer, når modstandskraften mod sygdom er nedsat) </li>\n                           <li>neurologiske infektioner (inklusive viral meningitis) </li>\n                           <li>øjeninfektioner </li>\n                           <li>bakterieinfektioner </li>\n                           <li>irritation og infektion i tyktarmen (diverticulitis) </li>\n                           <li>kræft </li>\n                           <li>kræft, der rammer lymfesystemet </li>\n                           <li>modermærkekræft </li>\n                           <li>sygdomme i immunsystemet som kan påvirke lungerne, huden og lymfeknuderne (viser sig oftest som sarkoidose) </li>\n                           <li>vaskulitis (betændelse i blodkar) </li>\n                           <li>rysten </li>\n                           <li>neuropati (nervelidelse) </li>\n                           <li>slagtilfælde </li>\n                           <li>høretab, summen for ørerne </li>\n                           <li>fornemmelse af uregelmæssige hjerteslag såsom oversprungne slag </li>\n                           <li>hjerteproblemer, som kan forårsage kortåndethed og hævede ankler </li>\n                           <li>hjertetilfælde </li>\n                           <li>sæklignende udposning på væggen af en større pulsåre (aneurisme), betændelse og blodprop i en blodåre, tilstopning af et blodkar </li>\n                           <li>lungesygdom som forårsager kortåndethed (inklusive inflammation/vævsirritation) </li>\n                           <li>blodprop i lungerne (lungeemboli) </li>\n                           <li>unormal ophobning af væske mellem lungehinderne (pleuraeffusion) </li>\n                           <li>inflammation i bugspytkirtlen, som kan give alvorlige smerter i maven og ryggen </li>\n                           <li>synkebesvær </li>\n                           <li>ødem i ansigtet (hævelse i ansigtet) </li>\n                           <li>inflammation i galdeblæren, galdesten </li>\n                           <li>fedtholdig lever; </li>\n                           <li>nattesved </li>\n                           <li>ar </li>\n                           <li>unormale muskelssvigt </li>\n                           <li>systemisk lupus erythematosus (indbefatter betændelse i huden, hjertet, lungerne, leddene og andre organsystemer) </li>\n                           <li>søvnafbrydelser </li>\n                           <li>impotens </li>\n                           <li>inflammationer </li>\n                        </ul>\n                        <div class=\"paragraph\">\n                           <b>\n                              <br/>Sjælden</b> (kan påvirke op til 1 ud af 1.000 personer) </div>\n                        <ul>\n                           <li>leukæmi (kræft som påvirker blod og knoglemarv) </li>\n                           <li>alvorlig allergisk reaktion med shock </li>\n                           <li>dissemineret sklerose </li>\n                           <li>nerveforstyrrelser (såsom inflammation (betændelse) i synsnerven og Guillain-Barré syndrom, som kan forårsage muskelsvaghed, unormal følesans, prikken i arme og overkrop) </li>\n                           <li>hjertestop </li>\n                           <li>lungefibrose (dannelse af arvæv i lungerne) </li>\n                           <li>perforering af tarmen </li>\n                           <li>hepatit </li>\n                           <li>genopblussen af hepatitis B </li>\n                           <li>autoimmun hepatit (leverbetændelse forårsaget af kroppens eget immunsystem) </li>\n                           <li>inflammation/betændelse i hudens blodkar (kutan vaskulitis) </li>\n                           <li>Stevens-Johnsons syndrom (tidlige symptomer inkluderer utilpashed, feber, hovedpine og udslæt) </li>\n                           <li>ødem i ansigtet (hævelse i ansigtet) forbundet med allergiske reaktioner </li>\n                           <li>betændelseslignende hududslæt (erythema multiforme) </li>\n                           <li>lupus-lignende syndrom </li>\n                           <li>angioødem (lokal hævelse af huden) </li>\n                           <li>lichenoid hudreaktion (kløende rødligt-lilla hududslæt) </li>\n                        </ul>\n                        <div class=\"paragraph\">\n                           <b>\n                              <br/>Ikke kendt</b> (hyppigheden kan ikke vurderes ud fra forhåndenværende data) </div>\n                        <ul>\n                           <li>hepatosplenisk T-celle lymfom (en sjælden form for blodkræft, som ofte er dødelig) </li>\n                           <li>Merkelcelle karcinom (en type hudkræft) </li>\n                           <li>Kaposis sarkom, en sjælden type kræft, der er forbundet med infektion med humant herpesvirus 8. Kaposis sarkom forekommer oftest som lilla læsioner på huden </li>\n                           <li>leversvigt </li>\n                           <li>forværring af en tilstand, som kaldes dermatomyositis (ses som hududslæt ledsaget af muskelsvaghed) </li>\n                           <li>vægtforøgelse (for de fleste patienters vedkommende var vægtforøgelsen lille) </li>\n                        </ul>\n                        <div class=\"paragraph\">\n                           <br/>Nogle bivirkninger, som er set med Humira har ikke symptomer og kan kun opdages ved blodprøver. </div>\n                        <div class=\"paragraph\">\u00a0</div>\n                        <div class=\"paragraph\">Disse inkluderer:</div>\n                        <div class=\"paragraph\">\u00a0</div>\n                        <div class=\"paragraph\">\n                           <b>Meget almindelige </b>(kan påvirke mere end 1 ud af 10 personer) </div>\n                        <ul>\n                           <li>nedsat antal af hvide blodlegemer </li>\n                           <li>nedsat antal af røde blodlegemer </li>\n                           <li>forhøjede lipider i blodet </li>\n                           <li>forhøjede leverenzymer </li>\n                        </ul>\n                        <div class=\"paragraph\">\u00a0</div>\n                        <div class=\"paragraph\">\n                           <b>Almindelige </b>(kan påvirke op til 1 ud af 10 personer) </div>\n                        <ul>\n                           <li>forhøjet antal hvide blodlegemer </li>\n                           <li>nedsat antal blodplader </li>\n                           <li>forhøjet urinsyre i blodet </li>\n                           <li>unormale blodmålinger af natrium </li>\n                           <li>lave blodmålinger af calcium </li>\n                           <li>lave blodmålinger af fosfat </li>\n                           <li>højt blodsukker </li>\n                           <li>høje blodmålinger af lactatdehydrogenase </li>\n                           <li>tilstedeværelse af autoantistoffer i blodet </li>\n                           <li>lavt kalium i blodet </li>\n                        </ul>\n                        <div class=\"paragraph\">\u00a0</div>\n                        <div class=\"paragraph\">\n                           <b>Ikke almindelige</b> (kan påvirke op til 1 ud af 100 personer) </div>\n                        <ul>\n                           <li>forhøjede bilirubinmålinger (leverblodtest) </li>\n                        </ul>\n                        <div class=\"paragraph\">\u00a0</div>\n                        <div class=\"paragraph\">\n                           <b>Sjældne </b>(kan påvirke op til 1 ud af 1.000 personer) </div>\n                        <ul>\n                           <li>nedsat antal hvide blodlegemer, røde blodlegemer og blodplader. </li>\n                        </ul>\n                        <h3>  Indberetning af bivirkninger  </h3>\n                        <div class=\"paragraph\">Hvis du oplever bivirkninger, bør du tale med din læge eller apotekspersonalet. Dette gælder også mulige bivirkninger, som ikke er medtaget i denne indlægsseddel. Du eller dine pårørende kan også indberette bivirkninger direkte tilLægemiddelstyrelsen via </div>\n                        <div class=\"paragraph\">Lægemiddelstyrelsen </div>\n                        <div class=\"paragraph\">Axel Heides Gade 1 </div>\n                        <div class=\"paragraph\">DK-2300 København S </div>\n                        <div class=\"paragraph\">Websted: www.meldenbivirkning.dk </div>\n                        <div class=\"paragraph\">\u00a0</div>\n                        <div class=\"paragraph\">Ved at indrapportere bivirkninger kan du hjælpe med at fremskaffe mere information om sikkerheden af dette lægemiddel.</div>\n                        <div class=\"paragraph\">\n                           <a href=\"https://www.meldenbivirkning.dk\" title=\"Meld en bivirkning\">\n\t\t\t\t\t\t\t\tMeld en bivirkning.\n\t\t\t\t\t\t\t</a>\n                        </div>\n                     </div>"
          }
        },
        {
          "title" : "5. Opbevaring",
          "code" : {
            "coding" : [{
              "system" : "https://spor.ema.europa.eu/v1/lists/200000029659/terms/",
              "code" : "200000029913"
            }]
          },
          "text" : {
            "status" : "additional",
            "div" : "<div xmlns=\"http://www.w3.org/1999/xhtml\">\n                        <a name=\"Section5\"/>\n                        <div>\u00a0</div>\n                        <h2>5. Opbevaring</h2>\n                        <div class=\"paragraph\">Opbevar lægemidlet utilgængeligt for børn.</div>\n                        <div class=\"paragraph\">\u00a0</div>\n                        <div class=\"paragraph\">Brug ikke Humira efter den udløbsdato, der står på pakningen efter EXP.</div>\n                        <div class=\"paragraph\">\u00a0</div>\n                        <div class=\"paragraph\">Opbevares i køleskab ( 2 - 8°C). Må ikke nedfryses. Opbevar sprøjten i den ydre karton for at beskytte mod lys.</div>\n                        <div class=\"paragraph\">\u00a0</div>\n                        <div class=\"paragraph\">Alternativ opbevaring:</div>\n                        <div class=\"paragraph\">\u00a0</div>\n                        <div class=\"paragraph\">Hvis det er nødvendigt (f.eks. når du rejser), kan en enkelt Humira fyldt injektionssprøjte opbevares ved stuetemperatur (op til 25 °C) i en periode på højst 14 dage - vær sikker på at beskytte den mod lys. Når injektionssprøjten er taget ud af køleskabet og har været opbevaret ved stuetemperatur, <b>skal injektionssprøjten bruges indenfor 14 dage eller kasseres</b>, også selv om den lægges tilbage i køleskab.</div>\n                        <div class=\"paragraph\">\u00a0</div>\n                        <div class=\"paragraph\">Du skal registrere den dato, hvor injektionssprøjten først tages ud af køleskabet, og den dato efter hvilken, den skal kasseres.</div>\n                        <div class=\"paragraph\">\u00a0</div>\n                        <div class=\"paragraph\">Spørg lægen eller apotekspersonalet, hvordan du skal bortskaffe medicinrester. Af hensyn til miljøet må du ikke smide medicinrester i afløbet, toilettet eller skraldespanden.</div>\n                     </div>"
          }
        },
        {
          "title" : "6. Pakningsstørrelser og yderligere oplysninger",
          "code" : {
            "coding" : [{
              "system" : "https://spor.ema.europa.eu/v1/lists/200000029659/terms/",
              "code" : "200000029914"
            }]
          },
          "text" : {
            "status" : "additional",
            "div" : "<div xmlns=\"http://www.w3.org/1999/xhtml\">\n                        <a name=\"Section6\"/>\n                        <div>\u00a0</div>\n                        <h2>6. Pakningsstørrelser og yderligere oplysninger</h2>\n                        <h3>  Humira indeholder   </h3>\n                        <div class=\"paragraph\">Aktivt stof: adalimumab.</div>\n                        <div class=\"paragraph\">Øvrige indholdsstoffer: mannitol, polysorbat 80 og vand til injektionsvæsker.</div>\n                        <h3>  Udseende og pakningsstørrelser </h3>\n                        <div class=\"paragraph\">Humira 40 mg injektionsvæske, opløsning i fyldt injektionssprøjte leveres som en steril opløsning med 40 mg adalimumab i 0,4 ml injektionsvæske.</div>\n                        <div class=\"paragraph\">\u00a0</div>\n                        <div class=\"paragraph\">Humira fyldt sprøjte er en glas sprøjte indeholdende en opløsning af adalimumab.</div>\n                        <div class=\"paragraph\">Hver pakning indeholder 1, 2, 4 eller 6 fyldte injektionssprøjter til patientbrug med henholdsvis 1, 2, 4 eller 6 alkoholservietter.</div>\n                        <div class=\"paragraph\">\u00a0</div>\n                        <div class=\"paragraph\">Ikke alle pakningsstørrelser er nødvendig vis markedsført.</div>\n                        <div class=\"paragraph\">\u00a0</div>\n                        <div class=\"paragraph\">Humira kan være tilgængeligt i et hætteglas, en fyldt sprøjte og en fyldt pen.</div>\n                     </div>"
          },
          "section" : [{
            "title" : "Indehaver af markedsføringstilladelsen og fremstiller",
            "code" : {
              "coding" : [{
                "system" : "https://spor.ema.europa.eu/v1/lists/200000029659/terms/",
                "code" : "200000029917"
              }]
            },
            "text" : {
              "status" : "additional",
              "div" : "<div xmlns=\"http://www.w3.org/1999/xhtml\">\n                           <h2>Indehaver af markedsføringstilladelsen og fremstiller</h2>\n                           <h3>  Indehaver af markedsføringstilladelsen:  </h3>\n                           <div class=\"paragraph\">AbbVie Deutschland GmbH &amp;amp; Co. KG <br/>Knollstrasse <br/>67061 Ludwigshafen <br/>Tyskland </div>\n                           <h3>  Fremstiller:  </h3>\n                           <div class=\"paragraph\">AbbVie Biotechnology GmbH <br/>Knollstrasse <br/>67061 Ludwigshafen <br/>Tyskland </div>\n                           <div class=\"paragraph\">\u00a0</div>\n                           <div class=\"paragraph\">Hvis du ønsker yderligere oplysninger om dette lægemiddel, skal du henvende dig til den lokale repræsentant for indehaveren af markedsføringstilladelsen:</div>\n                           <div class=\"paragraph\">\u00a0</div>\n                           <div class=\"paragraph\">\n                              <b>Danmark </b>\n                           </div>\n                           <div class=\"paragraph\">AbbVie A/S</div>\n                           <div class=\"paragraph\">Tlf: +45 72 30 20 28</div>\n                           <div class=\"paragraph\">\u00a0</div>\n                           <div class=\"paragraph\">Du kan finde yderligere oplysninger om Humira på Det Europæiske Lægemiddelagenturs hjemmeside: http://www.ema.europa.eu/.</div>\n                           <div class=\"paragraph\">\u00a0</div>\n                           <div class=\"paragraph\">\n                              <b>Hvis du ønsker at rekvirere denne indlægsseddel som magnaprint, kan du kontakte den lokale repræsentant for indehaveren af markedsføringstilladelsen.</b>\n                           </div>\n                           <div class=\"paragraph\">\u00a0</div>\n                        </div>"
            }
          },
          {
            "title" : "Denne indlægsseddel blev senest ændret 09/2021",
            "code" : {
              "coding" : [{
                "system" : "https://spor.ema.europa.eu/v1/lists/200000029659/terms/",
                "code" : "200000029919"
              }]
            },
            "text" : {
              "status" : "additional",
              "div" : "<div xmlns=\"http://www.w3.org/1999/xhtml\">\n                           <h2>Denne indlægsseddel blev senest ændret 09/2021</h2>\n                        </div>"
            }
          },
          {
            "title" : "7. 7. Injektion af Humira",
            "code" : {
              "coding" : [{
                "system" : "https://spor.ema.europa.eu/v1/lists/200000029659/terms/",
                "code" : "200000029920"
              }]
            },
            "text" : {
              "status" : "additional",
              "div" : "<div xmlns=\"http://www.w3.org/1999/xhtml\">\n                           <a name=\"Section8\"/>\n                           <div>\u00a0</div>\n                           <h2>7. 7. Injektion af Humira</h2>\n                           <ul>\n                              <li>Følgende er en vejledning i, hvordan man injicerer Humira subkutant med den fyldte injektionssprøjte. Læs vejledningen grundigt, og følg den trin for trin. </li>\n                              <li>Din læge eller dennes assistent, sygeplejerske eller apotekspersonalet vil instruere dig i selvinjektion. </li>\n                              <li>Forsøg ikke at injicere dig selv, før du er sikker på, hvordan du skal forberede og give injektionen. </li>\n                              <li>Efter grundig oplæring kan injektionen gives af dig selv eller af en anden person, f.eks. et familiemedlem eller en ven. </li>\n                           </ul>\n                           <div class=\"paragraph\">Brug kun hver fyldt injektionssprøjte til én injektion.</div>\n                           <div class=\"paragraph\">\u00a0</div>\n                           <div class=\"paragraph\">\n                              <b>Humira fyldt injektionssprøjte</b>\n                           </div>\n                           <div class=\"paragraph\">\u00a0</div>\n                           <div class=\"paragraph\">\n                              <img src=\"#179697\" alt=\"Humira AbbVie Deutschland GmbH &amp; Co. KG injektionsvæske, opløsning i fyldt injektionssprøjte 40mg/0,4 ml\"/>\n                           </div>\n                           <div class=\"paragraph\">\u00a0</div>\n                           <div class=\"paragraph\">\n                              <b>Brug ikke den fyldte injektionssprøjte og kontakt din læge eller apotekspersonalet, hvis</b>\n                           </div>\n                           <ul>\n                              <li>væsken er uklar, misfarvet eller indeholder flager eller partikler </li>\n                              <li>udløbsdatoen (EXP) er passeret </li>\n                              <li>væsken har været frosset eller ligget i direkte sollys </li>\n                              <li>den fyldte injektionssprøjte har været tabt eller knust </li>\n                           </ul>\n                           <div class=\"paragraph\">\n                              <b>Fjern først beskyttelseshætten umiddelbart før injektion. Opbevares utilgængeligt for børn.</b>\n                           </div>\n                           <div class=\"paragraph\">\u00a0</div>\n                           <table border=\"1\" cellpadding=\"4\" cellspacing=\"0\" width=\"100%\" style=\"border-collapse:collapse;\">\n                              <colgroup>\n                                 <col/>\n                              </colgroup>\n                              <tr>\n                                 <td valign=\"top\" align=\"left\">\n                                    <div class=\"paragraph\">\n                                       <b>TRIN 1</b>\n                                    </div>\n                                 </td>\n                              </tr>\n                              <tr>\n                                 <td valign=\"top\" align=\"left\">\n                                    <div class=\"paragraph\">Tag Humira ud af køleskabet.</div>\n                                    <div class=\"paragraph\">\n                                       <br/>Lad Humira ligge ved stuetemperatur i <b>15 til 30</b> minuter inden injektion.</div>\n                                    <ul>\n                                       <li>\n                                          <b>Fjern ikke </b>beskyttelseshætten, imens Humira opnår stuetemperatur </li>\n                                       <li>\n                                          <b>Opvarm </b>ikke Humira på nogen måde. F.eks. <b>opvarm </b>ikke Humira i en mikroovn eller i varmt vand </li>\n                                    </ul>\n                                 </td>\n                              </tr>\n                              <tr>\n                                 <td valign=\"top\" align=\"left\">\n                                    <div class=\"paragraph\">\n                                       <b>TRIN 2</b>\n                                    </div>\n                                    <div class=\"paragraph\">\u00a0</div>\n                                    <div class=\"paragraph\">\n                                       <img src=\"#179698\" alt=\"Humira AbbVie Deutschland GmbH &amp; Co. KG injektionsvæske, opløsning i fyldt injektionssprøjte 40mg/0,4 ml\"/>\n                                    </div>\n                                    <div class=\"paragraph\">\u00a0</div>\n                                    <div class=\"paragraph\">Kontrollér udløbsdatoen (EXP). <b>Brug ikke</b> den fyldte injektionssprøjte, hvis udløbsdatoen (EXP) er passeret.</div>\n                                    <div class=\"paragraph\">\n                                       <br/>Læg følgende ting på en ren, flad overflade</div>\n                                    <ul>\n                                       <li>1 fyldt injektionssprøjte til engangsbrug og </li>\n                                       <li>1 alkoholserviet </li>\n                                    </ul>\n                                    <div class=\"paragraph\">Vask og tør hænderne.</div>\n                                 </td>\n                              </tr>\n                              <tr>\n                                 <td valign=\"top\" align=\"left\">\n                                    <div class=\"paragraph\">\n                                       <b>TRIN 3</b>\n                                    </div>\n                                    <div class=\"paragraph\">\u00a0</div>\n                                    <div class=\"paragraph\">\n                                       <img src=\"#179699\" alt=\"Humira AbbVie Deutschland GmbH &amp; Co. KG injektionsvæske, opløsning i fyldt injektionssprøjte 40mg/0,4 ml\"/>\n                                    </div>\n                                    <div class=\"paragraph\">\u00a0</div>\n                                    <div class=\"paragraph\">Vælg et injektionssted:</div>\n                                    <ul>\n                                       <li>På forsiden af dit lår eller </li>\n                                       <li>På din mave (abdomen) mindst 5 cm fra din navle </li>\n                                       <li>Mindst 3 cm fra dit senest anvendte injektionssted </li>\n                                    </ul>\n                                    <div class=\"paragraph\">Tør injektionsstedet af med cirklende bevægelser med den medfølgende alkoholserviet.</div>\n                                    <ul>\n                                       <li>\n                                          <b>Injicer ikke </b>gennem tøjet </li>\n                                       <li>\n                                          <b>Injicer ikke </b>i et område, hvor huden er øm, forslået, rød, hård, arret eller har mærker eller områder med plaque-psoriasis </li>\n                                    </ul>\n                                    <div class=\"paragraph\">\u00a0</div>\n                                 </td>\n                              </tr>\n                              <tr>\n                                 <td valign=\"top\" align=\"left\">\n                                    <div class=\"paragraph\">\n                                       <b>TRIN 4</b>\n                                    </div>\n                                    <div class=\"paragraph\">\u00a0</div>\n                                    <div class=\"paragraph\">\n                                       <img src=\"#178239\" alt=\"Humira AbbVie Deutschland GmbH &amp; Co. KG injektionsvæske, opløsning i fyldt injektionssprøjte 40mg/0,4 ml\"/>\n                                    </div>\n                                    <div class=\"paragraph\">\u00a0</div>\n                                    <div class=\"paragraph\">Hold den fyldte injektionssprøjte i en hånd.</div>\n                                    <div class=\"paragraph\">\n                                       <br/>Kontrollér væsken i den fyldte injektionssprøjte.</div>\n                                    <div class=\"paragraph\">\u00a0</div>\n                                    <ul>\n                                       <li>Kontrollér at væsken er klar og farveløs </li>\n                                       <li>\n                                          <b>Brug ikke</b> den fyldte injektionssprøjte, hvis væsken er uklar eller indeholder partikler </li>\n                                       <li>\n                                          <b>Brug ikke</b> den fyldte injektionssprøjte, hvis den har været tabt eller knust </li>\n                                    </ul>\n                                    <div class=\"paragraph\">Træk forsigtigt beskyttelseshætten lige af med den anden hånd. Kassér hætten. Sæt ikke hætten på igen</div>\n                                    <div class=\"paragraph\">\u00a0</div>\n                                    <ul>\n                                       <li>\n                                          <b>Berør ikke </b>kanylen med fingrene, og lad ikke kanylen røre nogen flade </li>\n                                    </ul>\n                                    <div class=\"paragraph\">\u00a0</div>\n                                 </td>\n                              </tr>\n                              <tr>\n                                 <td valign=\"top\" align=\"left\">\n                                    <div class=\"paragraph\">\n                                       <b>TRIN 5</b>\n                                    </div>\n                                    <div class=\"paragraph\">\u00a0</div>\n                                    <div class=\"paragraph\">\n                                       <img src=\"#178240\" alt=\"Humira AbbVie Deutschland GmbH &amp; Co. KG injektionsvæske, opløsning i fyldt injektionssprøjte 40mg/0,4 ml\"/>\n                                    </div>\n                                    <div class=\"paragraph\">Hold den fyldte injektionssprøjte med kanylen pegende opad.</div>\n                                    <div class=\"paragraph\">\u00a0</div>\n                                    <ul>\n                                       <li>Hold den fyldte injektionssprøjte med en hånd, så du kan se luften i den fyldte injektionssprøjte. </li>\n                                    </ul>\n                                    <div class=\"paragraph\">Pres langsomt stemplet ind for at presse luften ud af kanylen.</div>\n                                    <ul>\n                                       <li>Det er normalt at se en dråbe væske komme ud af kanylen </li>\n                                    </ul>\n                                 </td>\n                              </tr>\n                              <tr>\n                                 <td valign=\"top\" align=\"left\">\n                                    <div class=\"paragraph\">\n                                       <b>TRIN 6</b>\n                                    </div>\n                                    <div class=\"paragraph\">\u00a0</div>\n                                    <div class=\"paragraph\">\n                                       <img src=\"#178241\" alt=\"Humira AbbVie Deutschland GmbH &amp; Co. KG injektionsvæske, opløsning i fyldt injektionssprøjte 40mg/0,4 ml\"/>\n                                    </div>\n                                    <div class=\"paragraph\">\u00a0</div>\n                                    <div class=\"paragraph\">Hold den fyldte injektionssprøjte med den ene hånd mellem tommel- og pegefingrene, som du holder en blyant.</div>\n                                    <div class=\"paragraph\">\n                                       <br/>Klem om huden på injektionsstedet med den anden hånd for at hæve området og hold fast.</div>\n                                 </td>\n                              </tr>\n                              <tr>\n                                 <td valign=\"top\" align=\"left\">\n                                    <div class=\"paragraph\">\n                                       <b>TRIN 7</b>\n                                    </div>\n                                    <div class=\"paragraph\">\u00a0</div>\n                                    <div class=\"paragraph\">\n                                       <img src=\"#178242\" alt=\"Humira AbbVie Deutschland GmbH &amp; Co. KG injektionsvæske, opløsning i fyldt injektionssprøjte 40mg/0,4 ml\"/>\n                                    </div>\n                                    <div class=\"paragraph\">\u00a0</div>\n                                    <div class=\"paragraph\">Pres kanylen med en hurtig, kort bevægelse helt ind i huden i en vinkel på 45°.</div>\n                                    <ul>\n                                       <li>Slip med hånden, der klemmer om huden, når kanylen er inde </li>\n                                    </ul>\n                                    <div class=\"paragraph\">Pres langsomt stemplet helt ned for at injicere opløsningen og tømme sprøjten.</div>\n                                 </td>\n                              </tr>\n                              <tr>\n                                 <td valign=\"top\" align=\"left\">\n                                    <div class=\"paragraph\">\n                                       <b>TRIN 8</b>\n                                    </div>\n                                    <div class=\"paragraph\">\u00a0</div>\n                                    <div class=\"paragraph\">\n                                       <img src=\"#179700\" alt=\"Humira AbbVie Deutschland GmbH &amp; Co. KG injektionsvæske, opløsning i fyldt injektionssprøjte 40mg/0,4 ml\"/>\n                                    </div>\n                                    <div class=\"paragraph\">\u00a0</div>\n                                    <div class=\"paragraph\">Når injektionen er færdig, trækkes kanylen ud af huden og holdes i den samme vinkel, som da den blev ført ind.</div>\n                                    <div class=\"paragraph\">\n                                       <br/>Anbring en vatkugle eller en gazeserviet på injektionsstedet, når injektionen er fuldført.</div>\n                                    <ul>\n                                       <li>Gnid ikke <b>på injektionsstedet</b>\n                                       </li>\n                                       <li>Lidt blod på injektionsstedet er normalt </li>\n                                    </ul>\n                                 </td>\n                              </tr>\n                           </table>\n                           <div class=\"paragraph\">\u00a0</div>\n                           <table border=\"1\" cellpadding=\"4\" cellspacing=\"0\" width=\"100%\" style=\"border-collapse:collapse;\">\n                              <colgroup>\n                                 <col/>\n                              </colgroup>\n                              <tr>\n                                 <td valign=\"top\" align=\"left\">\n                                    <div class=\"paragraph\">\n                                       <b>TRIN 9</b>\n                                    </div>\n                                    <div class=\"paragraph\">\u00a0</div>\n                                    <div class=\"paragraph\">Den brugte injektionssprøjte kasseres i en særlig beholder, som angivet af din læge, sygeplejerske eller apotek. <b>Sæt </b>aldrig hætten på kanylen igen.</div>\n                                    <div class=\"paragraph\">\u00a0</div>\n                                    <ul>\n                                       <li>\n                                          <b>Genbrug ikke og </b>smid ikke den fyldte injektionssprøjte ud med husholdningsaffald </li>\n                                       <li>\n                                          <b>Opbevar altid </b>den fyldte injektionssprøjte og den særlige beholder utilgængeligt for børn </li>\n                                    </ul>\n                                    <div class=\"paragraph\">Beskyttelseshætten, alkoholservietten, vatkugle eller gazeserviet, blisterpakning og pakning kan smides ud med husholdningsaffald.</div>\n                                 </td>\n                              </tr>\n                           </table>\n                           <div class=\"paragraph\">\u00a0</div>\n                        </div>"
            },
            "entry" : [{
              "reference" : "#179697"
            },
            {
              "reference" : "#179698"
            },
            {
              "reference" : "#179699"
            },
            {
              "reference" : "#178239"
            },
            {
              "reference" : "#178240"
            },
            {
              "reference" : "#178241"
            },
            {
              "reference" : "#178242"
            },
            {
              "reference" : "#179700"
            }]
          }]
        }]
      }]
    }
  },
  {
    "fullUrl" : "https://gravitatehealth.eu/fhir/nordic-epi/MedicinalProductDefinition/IBD-MPD-4",
    "resource" : {
      "resourceType" : "MedicinalProductDefinition",
      "id" : "IBD-MPD-4",
      "meta" : {
        "profile" : ["http://hl7.org/fhir/uv/emedicinal-product-info/StructureDefinition/MedicinalProductDefinition-uv-epi",
        "https://gravitatehealth.eu/fhir/nordic-epi-ig/StructureDefinition/Nordic-ePI-MedicinalProductDefinition"]
      },
      "text" : {
        "status" : "generated",
        "div" : "<div xmlns=\"http://www.w3.org/1999/xhtml\"><a name=\"MedicinalProductDefinition_IBD-MPD-4\"> </a><p><b>Generated Narrative: MedicinalProductDefinition</b><a name=\"IBD-MPD-4\"> </a><a name=\"hcIBD-MPD-4\"> </a></p><div style=\"display: inline-block; background-color: #d9e0e7; padding: 6px; margin: 4px; border: 1px solid #8da1b4; border-radius: 5px; line-height: 60%\"><p style=\"margin-bottom: 0px\">Resource MedicinalProductDefinition &quot;IBD-MPD-4&quot; </p><p style=\"margin-bottom: 0px\">Profiles: <a href=\"https://build.fhir.org/ig/HL7/emedicinal-product-info//StructureDefinition-MedicinalProductDefinition-uv-epi.html\">MedicinalProductDefinition (ePI)</a>, <code>https://gravitatehealth.eu/fhir/nordic-epi-ig/StructureDefinition/Nordic-ePI-MedicinalProductDefinition</code></p></div><p><b>identifier</b>: <code>http://legemiddelverket.no/FEST/LegemiddelMerkevareID</code>/ID_CDA2295D-F1AB-4BE5-898A-FEDFECE5A27B</p><h3>Names</h3><table class=\"grid\"><tr><td style=\"display: none\">-</td><td><b>ProductName</b></td></tr><tr><td style=\"display: none\">*</td><td>Humira inj, oppl 40 mg/sprøyte</td></tr></table></div>"
      },
      "identifier" : [{
        "system" : "http://legemiddelverket.no/FEST/LegemiddelMerkevareID",
        "value" : "ID_CDA2295D-F1AB-4BE5-898A-FEDFECE5A27B"
      }],
      "name" : [{
        "productName" : "Humira inj, oppl 40 mg/sprøyte"
      }]
    }
  },
  {
    "fullUrl" : "https://gravitatehealth.eu/fhir/nordic-epi/PackagedProductDefinition/IBD-PPD-4",
    "resource" : {
      "resourceType" : "PackagedProductDefinition",
      "id" : "IBD-PPD-4",
      "meta" : {
        "profile" : ["http://hl7.org/fhir/uv/emedicinal-product-info/StructureDefinition/PackagedProductDefinition-uv-epi",
        "https://gravitatehealth.eu/fhir/nordic-epi-ig/StructureDefinition/Nordic-ePI-PackagedProductDefinition"]
      },
      "text" : {
        "status" : "generated",
        "div" : "<div xmlns=\"http://www.w3.org/1999/xhtml\"><a name=\"PackagedProductDefinition_IBD-PPD-4\"> </a><p><b>Generated Narrative: PackagedProductDefinition</b><a name=\"IBD-PPD-4\"> </a><a name=\"hcIBD-PPD-4\"> </a></p><div style=\"display: inline-block; background-color: #d9e0e7; padding: 6px; margin: 4px; border: 1px solid #8da1b4; border-radius: 5px; line-height: 60%\"><p style=\"margin-bottom: 0px\">Resource PackagedProductDefinition &quot;IBD-PPD-4&quot; </p><p style=\"margin-bottom: 0px\">Profiles: <a href=\"https://build.fhir.org/ig/HL7/emedicinal-product-info//StructureDefinition-PackagedProductDefinition-uv-epi.html\">PackagedProductDefinition (ePI)</a>, <code>https://gravitatehealth.eu/fhir/nordic-epi-ig/StructureDefinition/Nordic-ePI-PackagedProductDefinition</code></p></div><p><b>identifier</b>: <code>http://legemiddelverket.no/FEST/LegemiddelPakningID</code>/ID_BF9E21C6-92B0-47E6-97A3-9449D2562919, <code>https://farmalogg.no/varenummer</code>/458163, <code>https://pharmaca.fi/vnr</code>/517641</p><p><b>name</b>: Humira inj, oppl 40 mg/sprøyte</p><p><b>packageFor</b>: <a href=\"#MedicinalProductDefinition_IBD-MPD-4\">See above (MedicinalProductDefinition/IBD-MPD-4)</a></p></div>"
      },
      "identifier" : [{
        "system" : "http://legemiddelverket.no/FEST/LegemiddelPakningID",
        "value" : "ID_BF9E21C6-92B0-47E6-97A3-9449D2562919"
      },
      {
        "system" : "https://farmalogg.no/varenummer",
        "value" : "458163"
      },
      {
        "system" : "https://pharmaca.fi/vnr",
        "value" : "517641"
      }],
      "name" : "Humira inj, oppl 40 mg/sprøyte",
      "packageFor" : [{
        "reference" : "MedicinalProductDefinition/IBD-MPD-4"
      }]
    }
  }]
}