<?xml version="1.0" encoding="UTF-8"?>

<Bundle xmlns="http://hl7.org/fhir">
  <id value="bundlepackageleaflet-en-e2464a7d3d627b9df9bef5bc3b263fb4"/>
  <meta>
    <profile value="http://hl7.org/fhir/uv/emedicinal-product-info/StructureDefinition/Bundle-uv-epi"/>
  </meta>
  <language value="en"/>
  <identifier>
    <system value="https://www.gravitatehealth.eu/sid/doc"/>
    <value value="xxx"/>
  </identifier>
  <type value="document"/>
  <timestamp value="2023-06-27T10:09:22Z"/>
  <entry>
    <fullUrl value="http://hl7.eu/fhir/ig/gravitate-health/Composition/composition-en-367b9089c0743a2330f4c6e82b40ee41"/>
    <resource>
      <Composition>
        <id value="composition-en-367b9089c0743a2330f4c6e82b40ee41"/>
        <meta>
          <profile value="http://hl7.org/fhir/uv/emedicinal-product-info/StructureDefinition/Composition-uv-epi"/>
        </meta>
        <language value="en"/>
        <text>
          <status value="generated"/><div xmlns="http://www.w3.org/1999/xhtml" xml:lang="en" lang="en"><a name="Composition_composition-en-367b9089c0743a2330f4c6e82b40ee41"> </a><p><b>Generated Narrative: Composition</b><a name="composition-en-367b9089c0743a2330f4c6e82b40ee41"> </a><a name="hccomposition-en-367b9089c0743a2330f4c6e82b40ee41"> </a></p><div style="display: inline-block; background-color: #d9e0e7; padding: 6px; margin: 4px; border: 1px solid #8da1b4; border-radius: 5px; line-height: 60%"><p style="margin-bottom: 0px">Resource Composition &quot;composition-en-367b9089c0743a2330f4c6e82b40ee41&quot;  (Language &quot;en&quot;) </p><p style="margin-bottom: 0px">Profile: <a href="https://build.fhir.org/ig/HL7/emedicinal-product-info//StructureDefinition-Composition-uv-epi.html">Composition (ePI)</a></p></div><p><b>identifier</b>: <code>https://spor.ema.europa.eu/rmswi/</code>/e5196cc3cd86b4a0171e8a0a4b8dfdd1</p><p><b>status</b>: final</p><p><b>type</b>: Package Leaflet <span style="background: LightGoldenRodYellow; margin: 4px; border: 1px solid khaki"> (#100000155538)</span></p><p><b>category</b>: Raw <span style="background: LightGoldenRodYellow; margin: 4px; border: 1px solid khaki"> (<a href="CodeSystem-epicategory-cs.html">Category of EPI</a>#R)</span></p><p><b>date</b>: 2022-02-16 13:28:17+0000</p><p><b>author</b>: <a href="#Organization_mah-16019cea3a857659d2c5a2018c2260df">See above (Organization/mah-16019cea3a857659d2c5a2018c2260df)</a></p><p><b>title</b>: TEST PURPOSES ONLY - Suliqua 100 units/ml + 50 micrograms/ml solution for injection in a pre-filled pen</p><h3>Attesters</h3><table class="grid"><tr><td style="display: none">-</td><td><b>Mode</b></td><td><b>Time</b></td></tr><tr><td style="display: none">*</td><td>Official <span style="background: LightGoldenRodYellow; margin: 4px; border: 1px solid khaki"> (<a href="http://hl7.org/fhir/R5/codesystem-composition-attestation-mode.html">Composition Attestation Mode</a>#official)</span></td><td>2022-02-16 13:28:17+0000</td></tr></table></div>
        </text>
        <identifier>
          <system value="https://spor.ema.europa.eu/rmswi/"/>
          <value value="e5196cc3cd86b4a0171e8a0a4b8dfdd1"/>
        </identifier>
        <status value="final"/>
        <type>
          <coding>
            <system value="https://spor.ema.europa.eu/rmswi/"/>
            <code value="100000155538"/>
          </coding>
          <text value="Package Leaflet"/>
        </type>
        <category>
          <coding>
            <system value="http://hl7.eu/fhir/ig/gravitate-health/CodeSystem/epicategory-cs"/>
            <code value="R"/>
            <display value="Raw"/>
          </coding>
        </category>
        <subject>
          <reference value="MedicinalProductDefinition/mp367b9089c0743a2330f4c6e82b40ee41"/>
        </subject>
        <date value="2022-02-16T13:28:17Z"/>
        <author>
          <reference value="Organization/mah-16019cea3a857659d2c5a2018c2260df"/>
        </author>
        <title value="TEST PURPOSES ONLY - Suliqua 100 units/ml + 50 micrograms/ml solution for injection in a pre-filled pen"/>
        <attester>
          <mode>
            <coding>
              <system value="http://hl7.org/fhir/composition-attestation-mode"/>
              <code value="official"/>
            </coding>
          </mode>
          <time value="2022-02-16T13:28:17Z"/>
        </attester>
        <section>
          <title value="B. Package Leaflet"/>
          <code>
            <coding>
              <system value="https://spor.ema.europa.eu/rmswi/"/>
              <code value="100000155538"/>
            </coding>
            <text value="B. PACKAGE LEAFLET"/>
          </code>
          <text>
            <status value="additional"/><div xmlns="http://www.w3.org/1999/xhtml">unavailable</div>
          </text>
          <emptyReason>
            <coding>
              <system value="http://terminology.hl7.org/CodeSystem/list-empty-reason"/>
              <code value="unavailable"/>
            </coding>
          </emptyReason>
          <section>
            <title value="Package leaflet: Information for the user"/>
            <code>
              <coding>
                <system value="https://spor.ema.europa.eu/rmswi/"/>
                <code value="100000155538"/>
              </coding>
              <text value="Package leaflet: Information for the user"/>
            </code>
            <text>
              <status value="additional"/><div xmlns="http://www.w3.org/1999/xhtml"><p>Read all of this leaflet carefully before you start using this medicine because it contains important information for you.</p><ul><li>Keep this leaflet. You may need to read it again.</li><li>If you have any further questions, ask your doctor or pharmacist or nurse.</li><li>This medicine has been prescribed for you only. Do not pass it on to others. It may harm them, even if their signs of illness are the same as yours.</li><li>If you get any side effects, talk to your doctor or pharmacist. This includes any possible side effects not listed in this leaflet. See section 4.</li></ul></div>
            </text>
          </section>
          <section>
            <title value="What is in this leaflet"/>
            <code>
              <coding>
                <system value="https://spor.ema.europa.eu/rmswi/"/>
                <code value="100000155538"/>
              </coding>
              <text value="What is in this leaflet"/>
            </code>
            <text>
              <status value="additional"/><div xmlns="http://www.w3.org/1999/xhtml"><p>What is in this leaflet</p><ol><li>What Suliqua is and what it is used for</li><li>What you need to know before you use Suliqua 3. How to use Suliqua</li><li>Possible side effects</li><li>How to store Suliqua</li><li>Contents of the pack and other information</li></ol></div>
            </text>
          </section>
          <section>
            <title value="1. What 0 is and what it is used for"/>
            <code>
              <coding>
                <system value="https://spor.ema.europa.eu/rmswi/"/>
                <code value="100000155538"/>
              </coding>
              <text value="1. What 0 is and what it is used for"/>
            </code>
            <text>
              <status value="additional"/><div xmlns="http://www.w3.org/1999/xhtml"><p>Suliqua is an injectable diabetes medicine that contains two active substances:</p><ul><li><p>insulin glargine: a long-acting type of insulin which helps control blood sugar (glucose) throughout the day.</p></li><li><p>lixisenatide: a “GLP-1 analogue” that helps the body produce its own additional insulin in response to increases in blood sugar, and slows the absorption of sugar from foods.</p></li></ul><p>Suliqua is used to treat adults with type 2 diabetes, to help control blood sugar levels when they are too high, it is an adjunct to diet and exercise. It is given, with metformin with or without sodium- glucose co-transporter-2 (SGLT2) inhibitors (gliflozin products), when other medicines are not enough on their own to control your blood sugar levels.</p></div>
            </text>
          </section>
          <section>
            <title value="2. What you need to know before you take 0"/>
            <code>
              <coding>
                <system value="https://spor.ema.europa.eu/rmswi/"/>
                <code value="100000155538"/>
              </coding>
              <text value="2. What you need to know before you take 0"/>
            </code>
            <text>
              <status value="additional"/><div xmlns="http://www.w3.org/1999/xhtml"><p><strong>Do not use Suliqua:</strong></p><ul><li>if you are allergic to insulin glargine or lixisenatide or to any of the other ingredients of this medicine (listed in section 6).</li></ul><p><strong>Warnings and precautions</strong></p><p>Talk to your doctor, pharmacist or nurse before using Suliqua if:</p><ul><li>you have type 1 diabetes, as Suliqua is used for type 2 diabetes and this medicine will not be right for you.</li><li>you have diabetic ketoacidosis (a complication of diabetes that occurs when the body is unable to use glucose because there is not enough insulin) since this medicine will not be right for you.</li><li>you have a severe stomach or gut problem such as a disease of the muscles of the stomach called “gastroparesis” which results in delayed stomach emptying. Since Suliqua may cause stomach side effects (see section 4), the medicine has not been studied in patients with severe stomach or gut problems. Please see the information regarding medicines that should not stay too long in your stomach in the section “Other medicines and Suliqua”.</li><li>you have severe kidney disease or you are on dialysis as the use of this medicine will not be recommended.</li></ul><p>Follow closely your doctor’s instructions for dose, monitoring (blood and urine tests), diet and physical activity (physical work and exercise) and injection technique.</p><p><strong>Be especially aware of the following:</strong></p><ul><li>Too low blood sugar (hypoglycaemia). If your blood sugar is too low, follow the guidance for hypoglycaemia (see information in the box at the end of this leaflet).</li><li>Too high blood sugar (hyperglycaemia). If your blood sugar is too high, follow the guidance for hyperglycaemia (see information in the box at the end of this leaflet).</li><li>Ensure that you use the right medicine. You must always check the label before each injection to avoid mix-ups between Suliqua and other insulins.</li><li>If you have poor eyesight, please see section 3.</li></ul><p><em>While using this medicine be aware of the following and talk to your doctor, pharmacist or nurse before using Suliqua:</em></p><ul><li>severe pain in your stomach area (abdomen) that will not go away. This could be a sign of inflamed pancreas (acute pancreatitis).</li><li>loss of fluids from your body (dehydration) e.g. in case of vomiting and diarrhoea. It is important to avoid dehydration by drinking plenty of fluids, especially during the first weeks of treatment with Suliqua.</li></ul><p><em>Skin changes at the injection site</em> The injection site should be rotated to prevent skin changes such as lumps under the skin. The insulin may not work very well if you inject into a lumpy area (see How to use Suliqua). Contact your doctor if you are currently injecting into a lumpy area before you start injecting in a different area. Your doctor may tell you to check your blood sugar more closely, and to adjust your insulin or your other antidiabetic medicine dose.</p><p><em>Travel</em></p><p>Talk to your doctor before travelling. You may need to talk about:</p><ul><li>If your medicine is available in the country you are visiting.</li><li>How to arrange the supply of your medicine, needles and other items. * How to correctly store your medicine while travelling.</li><li>The time you eat meals and use your medicine.</li><li>The possible effects of changing to different time zones.</li><li>Any health risks in the countries you will visit.</li><li>What you should do in an emergency if you feel unwell or become ill.</li></ul><p><strong>Children and adolescents</strong></p><p>There is no experience with Suliqua in children and adolescents aged less than 18 years; therefore, the use of Suliqua is not recommended in this age group.</p><p><strong>Other medicines and Suliqua</strong></p><p>Tell your doctor, pharmacist or nurse if you are using, have recently used or might use any other medicines. If you use another antidiabetic medicine, discuss with your doctor whether you should stop using that medicine when starting Suliqua.</p><p>Some medicines can change your blood sugar level. This may mean your doctor may need to change your Suliqua dose. So, before taking a medicine ask your doctor if it will affect your blood sugar and what action, if any, you need to take. You also need to be careful when you stop taking a medicine.</p><p>The effect of some medicines you swallow might be affected by Suliqua. Some medicines such as antibiotics, oral contraceptives, statins (medicines like atorvastatin to lower cholesterol), gastro-resistant tablets or capsules or granules or oral powder or suspensions that should not stay too long in your stomach may need to be taken at least one hour before or four hours after your Suliqua injection.</p><p><em>Your blood sugar level may fall (hypoglycaemia) if you take:</em></p><ul><li>Any other medicine to treat diabetes.</li><li>Disopyramide, for some heart problems.</li><li>Fluoxetine, for depression.</li><li>Sulphonamide antibiotics, to treat infections.</li><li>Fibrates, for lowering high levels of blood fats.</li><li>Monoamine oxidase inhibitors (MAOIs), for depression or Parkinson ́s disease.</li><li>Angiotensin converting enzyme (ACE) inhibitors, for heart problems or high blood pressure.</li><li>Medicines to relieve pain and lower fever, such as pentoxifylline, propoxyphene and salicylates (such as acetylsalicylic acid).</li><li>Pentamidine, for some parasite infections. This may cause too low blood sugar which is sometimes followed by too high blood sugar.</li></ul><p><em>Your blood sugar level may rise (hyperglycaemia) if you take:</em></p><ul><li>Corticosteroids such as cortisone and prednisolone, for inflammation.</li><li>Danazol, for endometriosis.</li><li>Diazoxide, for high blood pressure.</li><li>Protease inhibitors, for HIV.</li><li>Diuretics, for high blood pressure or fluid retention.</li><li>Glucagon, for very low blood sugar.</li><li>Isoniazid, for tuberculosis.</li><li>Somatropin, a growth hormone.</li><li>Thyroid hormones, for thyroid gland problems.</li><li>Oestrogens and progestogens, such as in the contraceptive pill for birth control or use of oestrogens for bone loss (osteoporosis).</li><li>Clozapine, olanzapine and phenothiazine derivatives, for mental health problems.</li><li>Sympathomimetic medicines such as epinephrine (adrenaline), salbutamol and terbutaline, for asthma.</li></ul><p><em>Your blood sugar level may either rise or fall if you take:</em></p><ul><li>Beta-blockers or clonidine, for high blood pressure.</li><li>Lithium salts, for mental health problems.</li></ul><p><em>Medicine that may reduce warning signs of low blood sugar</em></p><p>Beta-blockers and some other medicines (such as clonidine, guanethidine, reserpine – for high blood pressure) may make it harder to recognise warning signs of your low blood sugar levels (hypoglycaemia). It can even hide or stop the first signs that your blood sugar is too low.</p><p>If any of the above apply to you (or you are not sure), talk to your doctor, pharmacist or nurse before using this medicine.</p><p><em>Warfarin or other anticoagulants</em></p><p>Tell your doctor if you are taking warfarin or other anticoagulants (medicines used to prevent clotting of the blood) as you might need to have more frequent blood tests (called ‘International Normalised Ratio’ or INR test) to check your blood clotting.</p><p><strong>Suliqua with alcohol</strong></p><p>Your blood sugar level may either rise or fall if you drink alcohol. You should check your blood sugar level more often.</p><p><strong>Pregnancy and breast-feeding</strong></p><p>Suliqua should not be used during pregnancy. It is not known if Suliqua harms your unborn child. Suliqua should not be used if breast-feeding. It is not known if Suliqua passes into your milk. If you are pregnant or breast-feeding, think you may be pregnant or are planning to have a baby, ask your doctor or pharmacist for advice before taking this medicine.</p><p><strong>Driving and using machines</strong> Having too low or too high blood sugar (see information in the box at the end of this leaflet) can affect your ability to drive and use tools or machines. Your concentration may be affected. This could be dangerous to yourself and others.</p><p>Ask your doctor whether you can drive if:</p><ul><li>Your blood sugar is often too low.</li><li>You find it hard to recognise when your blood sugar is too low.</li></ul><p><strong>Suliqua contains sodium</strong></p><p>This medicine contains less than 1 mmol sodium (23 mg) per dose, that is to say essentially ‘sodium-free’.</p><p><strong>Suliqua contains metacresol</strong></p><p>This medicine contains metacresol which may cause allergic reactions.</p></div>
            </text>
          </section>
          <section>
            <title value="3. How to take 0"/>
            <code>
              <coding>
                <system value="https://spor.ema.europa.eu/rmswi/"/>
                <code value="100000155538"/>
              </coding>
              <text value="3. How to take 0"/>
            </code>
            <text>
              <status value="additional"/><div xmlns="http://www.w3.org/1999/xhtml"><p>Always use this medicine exactly as your doctor has told you. Your doctor may tell you to use a different dose of Suliqua compared to your previous insulin dose or glucose lowering medicine if any. Check with your doctor, pharmacist or nurse if you are not sure.</p><p>Based on your lifestyle, your blood sugar tests and your previous insulin use, your doctor will tell you:</p><ul><li>How much Suliqua you need each day and at what time.</li><li>When to check your blood sugar level and if you need to carry out urine tests.</li><li>When you may need a higher or lower dose. Your doctor may tell you to use Suliqua with other medicines for high blood sugar.</li></ul><p><strong>How much to use</strong></p><p>Suliqua 100 units/ml + 50 micrograms/ml solution for injection in pre-filled pen:</p><ul><li>This pen provides a dose of 10 to 40 dose steps in one injection, in steps of 1 dose step.</li><li>Each dose step you dial contains 1 unit of insulin glargine and 0.5 micrograms of lixisenatide.</li></ul><p>Your dose of Suliqua is administered as ‘dose steps’. The dose window on the pen shows the number of dose steps.</p><p>Do not inject a dose lower than 10 dose steps. Do not inject a dose higher than 40 dose steps. If a dose greater than 40 dose steps is needed, your doctor will prescribe a different strength. For dose steps from 30-60 units, Suliqua 100 units/ml + 33 micrograms/ml solution for injection in pre-filled pen is available.</p><p>Many factors may affect your blood sugar level. You should know what they are so that you can take the right action if your blood sugar level changes and help stop it becoming too high or too low. See the box at the end of this leaflet for more information.</p><p><em>Use in elderly patients (65 years and older)</em> If you are 65 years or older, talk to your doctor as you may need a lower dose.</p><p><em>If you have kidney or liver problems</em></p><p>If you have kidney or liver problems, talk to your doctor as you may need a lower dose.</p><p><strong>When to inject Suliqua</strong></p><p>Use Suliqua once a day, within 1 hour before a meal. Preferably inject Suliqua before the same meal every day, when you have chosen the most convenient meal.</p><p><strong>Before injecting Suliqua</strong></p><ul><li>Always follow the “Instructions for use” that come with this package leaflet and use the pen as described.</li><li>If you do not follow all of these instructions, you may get too much or too little of Suliqua. To avoid mistakes, always check the medicine pack and label on the pen before each injection to make sure you have the correct pen, especially if you inject more than one medicine. Ask your doctor or pharmacist if you are not sure.</li></ul><p><strong>How to inject</strong></p><ul><li>Suliqua is injected under the skin (subcutaneous use or “SC”).</li><li>Inject it into the front of your thighs, upper arms or the front of your waist (abdomen).</li><li>Change the place within the area you inject each day. This will reduce the risk of developing dents or lumps at the site (for more information, see “Other side effects” in section 4).</li></ul><p><strong>Do not use Suliqua</strong></p><ul><li>If there are particles in the Suliqua. The solution should be clear, colourless and water-like.</li></ul><p><strong>Other important information about using the pre-filled pens</strong></p><ul><li>Always use a new needle for each injection. The re-use of needles increases the risk of blocked needles which may cause under- or overdosing. Dispose of the needle safely after each use.</li><li>To prevent infection being passed from one person to another, pens should never be used for more than one person, even when the needle is changed.</li><li>Only use needles that are compatible with Suliqua pen (see “Instructions for Use”).</li><li>A safety test must be performed before each injection.</li><li>Throw away the used needle in a sharps container, or as told by your pharmacist or local authority.</li></ul><p>Never use a syringe to remove the solution from the pen to avoid dosing errors and potential overdose.</p><p>If the pen is damaged, has not been stored correctly, if you are not sure that it is working properly or you notice that your blood sugar control is unexpectedly getting worse:</p><ul><li>Throw the pen away and use a new one.</li><li>Talk to your doctor, pharmacist or nurse if you think you have a problem with your pen.</li></ul><p><strong>If you use more Suliqua than you should</strong></p><p>If you have injected too much of this medicine, your blood sugar level may become too low (hypoglycaemia). Check your blood sugar and eat more food to prevent your blood sugar getting too low (hypoglycaemia). If your blood sugar gets too low, see the advice in the box at the end of this leaflet.</p><p><strong>If you forget to use Suliqua</strong></p><p>If you have missed a dose of Suliqua or if you have not injected enough insulin, your blood sugar level may become too high (hyperglycaemia): When needed, Suliqua can be injected before the next meal.</p><ul><li>Do not inject a double dose to make up for a forgotten dose.</li><li>Do not use two injections per day</li><li>Check your blood sugar and then inject your next dose at the usual time.</li><li>For information on the treatment of hyperglycaemia, see the box at the end of this leaflet.</li></ul><p><strong>If you stop using Suliqua</strong></p><p>Do not stop using this medicine without talking to your doctor. If you do, it could lead to very high blood sugar (hyperglycaemia) and a build-up of acid in the blood (ketoacidosis).</p><p>If you have any further questions on the use of this medicine, ask your doctor, pharmacist or nurse.</p></div>
            </text>
          </section>
          <section>
            <title value="4. Possible side effects"/>
            <code>
              <coding>
                <system value="https://spor.ema.europa.eu/rmswi/"/>
                <code value="100000155538"/>
              </coding>
              <text value="4. Possible side effects"/>
            </code>
            <text>
              <status value="additional"/><div xmlns="http://www.w3.org/1999/xhtml"><p>Like all medicines, this medicine can cause side effects, although not everybody gets them.</p><p>If you notice signs of your blood sugar being too low (hypoglycaemia), take action to increase your blood sugar level straightaway (see the box at the end of this leaflet). Hypoglycaemia can be very serious and is very common with medicines containing insulin (may affect more than 1 in 10 people). Low blood sugar means that there is not enough sugar in your blood. If your blood sugar falls too low, you may pass out (become unconscious). If blood sugar remains very low for too long it may cause brain damage and may be life-threatening. For more information, see the box at the end of this leaflet.</p><p><strong>Other side effects</strong></p><p>Tell your doctor, pharmacist or nurse if you notice any of the following side effects:</p><p><strong>Skin changes at the injection site</strong></p><p>If you inject insulin too often at the same place, the skin may either shrink (lipoatrophy) or thicken (lipohypertrophy). Lumps under the skin may also be caused by build-up of a protein called amyloid (cutaneous amyloidosis). This is not known how often these skin changes occur. The insulin may not work very well if you inject into a lumpy area. Change the injection site with each injection to help prevent these skin changes.</p><p><strong>Common (may affect up to 1 in 10 people)</strong></p><ul><li>Feeling dizzy</li><li>Feeling sick (nausea)</li><li>V omiting</li><li>Diarrhoea</li><li>Skin and allergic reactions at the injection site: The signs may include reddening, unusually intense pain when injecting, itching, hives, swelling or inflammation. This can spread around the injection site. Most minor reactions to insulins usually disappear in a few days to a few weeks.</li></ul><p><strong>Uncommon (may affect up to 1 in 100 people)</strong></p><ul><li>Cold, runny nose, sore throat</li><li>Hives (urticaria)</li><li>Headache</li><li>Indigestion (dyspepsia)</li><li>Stomach ache</li><li>Tiredness</li></ul><p><strong>Rare (may affect up to 1 in 1,000 people)</strong></p><ul><li>A delay in the emptying of the stomach</li></ul><p><strong>Reporting of side effects</strong></p><p>If you get any side effects, talk to your doctor, pharmacist or nurse. This includes any possible side effects not listed in this leaflet. You can also report side effects directly via the national reporting system listed in Appendix V. By reporting side effects you can help provide more information on the safety of this medicine.</p></div>
            </text>
          </section>
          <section>
            <title value="5. How to store 0"/>
            <code>
              <coding>
                <system value="https://spor.ema.europa.eu/rmswi/"/>
                <code value="100000155538"/>
              </coding>
              <text value="5. How to store 0"/>
            </code>
            <text>
              <status value="additional"/><div xmlns="http://www.w3.org/1999/xhtml"><p>Keep this medicine out of the sight and reach of children.</p><p>Do not use this medicine after the expiry date which is stated on the carton and on the label of the pen after “EXP”. The expiry date refers to the last day of that month.</p><p><strong>Before first use</strong></p><p>Store in a refrigerator (2°C-8°C). Do not freeze or place next to the freezer compartment or a freezer pack. Keep the pen in the outer carton in order to protect from light.</p><p><strong>After first use</strong></p><p>Store your pen in use below 25°C for a maximum of 28 days. Discard the pen after this period. Do not return the pen to a refrigerator and do not freeze. Store the pen away from direct heat or direct light. Always keep the cap on the pen when you are not using it in order to protect it from light. Do not leave the pen in a car on an exceptionally warm or cold day.</p><p>Do not store the pen with the needle attached.</p><p>Do not throw away any medicines via wastewater or household waste. Ask your pharmacist how to throw away medicines you no longer used. These measures will help protect the environment.</p></div>
            </text>
          </section>
          <section>
            <title value="6. Contents of the pack and other information"/>
            <code>
              <coding>
                <system value="https://spor.ema.europa.eu/rmswi/"/>
                <code value="100000155538"/>
              </coding>
              <text value="6. Contents of the pack and other information"/>
            </code>
            <text>
              <status value="additional"/><div xmlns="http://www.w3.org/1999/xhtml"><p><strong>What Suliqua contains</strong></p><ul><li>The active substances are insulin glargine and lixisenatide. Each pen contains 300 units insulin glargine and 150 micrograms lixisenatide in 3 ml of solution. Each ml contains 100 units insulin glargine and 50 micrograms lixisenatide. Each dose step of Suliqua contains 1 unit of insulin glargine and 0.5 micrograms of lixisenatide.</li><li>The other ingredients are: glycerol 85%, methionine, metacresol, zinc chloride, concentrated hydrochloric acid and sodium hydroxide (for pH adjustment) and water for injections. See also section 2 “What you need to know before you use Suliqua” for information on sodium and metacresol.</li></ul><p><strong>What Suliqua looks like and contents of the pack</strong></p><p>Suliqua is a clear and colourless solution for injection (injection) filled in a glass cartridge inserted in a pre-filled pen (SoloStar).</p><p>Pack sizes of 3, 5 and 10 pre-filled pens.</p><p>Not all pack sizes may be marketed.</p><p><strong>Marketing Authorisation Holder</strong></p><p>Sanofi Winthrop Industrie 82 avenue Raspail</p><p>94250 Gentilly</p><p>France</p><p><strong>Manufacturer</strong></p><p>Sanofi-Aventis Deutschland GmbH</p><p>Industriepark Höchst - 65926 Frankfurt am Main</p><p>Germany</p></div>
            </text>
          </section>
        </section>
      </Composition>
    </resource>
  </entry>
  <entry>
    <fullUrl value="http://hl7.eu/fhir/ig/gravitate-health/ClinicalUseDefinition/cud-42659cd40ce761bcf6d15bd28423e45f"/>
    <resource>
      <ClinicalUseDefinition>
        <id value="cud-42659cd40ce761bcf6d15bd28423e45f"/>
        <meta>
          <profile value="http://hl7.org/fhir/uv/emedicinal-product-info/StructureDefinition/ClinicalUseDefinition-indication-uv-epi"/>
        </meta>
        <text>
          <status value="generated"/><div xmlns="http://www.w3.org/1999/xhtml"><a name="ClinicalUseDefinition_cud-42659cd40ce761bcf6d15bd28423e45f"> </a><p><b>Generated Narrative: ClinicalUseDefinition</b><a name="cud-42659cd40ce761bcf6d15bd28423e45f"> </a><a name="hccud-42659cd40ce761bcf6d15bd28423e45f"> </a></p><div style="display: inline-block; background-color: #d9e0e7; padding: 6px; margin: 4px; border: 1px solid #8da1b4; border-radius: 5px; line-height: 60%"><p style="margin-bottom: 0px">Resource ClinicalUseDefinition &quot;cud-42659cd40ce761bcf6d15bd28423e45f&quot; </p><p style="margin-bottom: 0px">Profile: <a href="https://build.fhir.org/ig/HL7/emedicinal-product-info//StructureDefinition-ClinicalUseDefinition-indication-uv-epi.html">ClinicalUseDefinition Indication (ePI)</a></p></div><p><b>identifier</b>: <code>https://spor.ema.europa.eu/rmswi/#/</code>/Hypertension (use: OFFICIAL)</p><p><b>type</b>: indication</p><p><b>subject</b>: <a href="#MedicinalProductDefinition_mp367b9089c0743a2330f4c6e82b40ee41">See above (MedicinalProductDefinition/mp367b9089c0743a2330f4c6e82b40ee41)</a></p><blockquote><p><b>indication</b></p><h3>DiseaseSymptomProcedures</h3><table class="grid"><tr><td style="display: none">-</td><td><b>Concept</b></td></tr><tr><td style="display: none">*</td><td>Hypertension <span style="background: LightGoldenRodYellow; margin: 4px; border: 1px solid khaki"> (mdr#10020772)</span></td></tr></table></blockquote></div>
        </text>
        <identifier>
          <use value="official"/>
          <system value="https://spor.ema.europa.eu/rmswi/#/"/>
          <value value="Hypertension"/>
        </identifier>
        <type value="indication"/>
        <subject>
          <reference value="MedicinalProductDefinition/mp367b9089c0743a2330f4c6e82b40ee41"/>
        </subject>
        <indication>
          <diseaseSymptomProcedure>
            <concept>
              <coding>
                <system value="http://terminology.hl7.org/CodeSystem/mdr"/>
                <code value="10020772"/>
                <display value="Hypertension"/>
              </coding>
            </concept>
          </diseaseSymptomProcedure>
        </indication>
      </ClinicalUseDefinition>
    </resource>
  </entry>
  <entry>
    <fullUrl value="http://hl7.eu/fhir/ig/gravitate-health/ClinicalUseDefinition/cud-7b1263be67675b61a6b6e6f0a5c35389"/>
    <resource>
      <ClinicalUseDefinition>
        <id value="cud-7b1263be67675b61a6b6e6f0a5c35389"/>
        <meta>
          <profile value="http://hl7.org/fhir/uv/emedicinal-product-info/StructureDefinition/ClinicalUseDefinition-interaction-uv-epi"/>
        </meta>
        <text>
          <status value="generated"/><div xmlns="http://www.w3.org/1999/xhtml"><a name="ClinicalUseDefinition_cud-7b1263be67675b61a6b6e6f0a5c35389"> </a><p><b>Generated Narrative: ClinicalUseDefinition</b><a name="cud-7b1263be67675b61a6b6e6f0a5c35389"> </a><a name="hccud-7b1263be67675b61a6b6e6f0a5c35389"> </a></p><div style="display: inline-block; background-color: #d9e0e7; padding: 6px; margin: 4px; border: 1px solid #8da1b4; border-radius: 5px; line-height: 60%"><p style="margin-bottom: 0px">Resource ClinicalUseDefinition &quot;cud-7b1263be67675b61a6b6e6f0a5c35389&quot; </p><p style="margin-bottom: 0px">Profile: <a href="https://build.fhir.org/ig/HL7/emedicinal-product-info//StructureDefinition-ClinicalUseDefinition-interaction-uv-epi.html">ClinicalUseDefinition Interaction (ePI)</a></p></div><p><b>identifier</b>: <code>https://gsrs.ncats.nih.gov/ginas/app/beta/</code>/Y9449Q51XH (use: OFFICIAL)</p><p><b>type</b>: interaction</p><p><b>subject</b>: <a href="#MedicinalProductDefinition_mp367b9089c0743a2330f4c6e82b40ee41">See above (MedicinalProductDefinition/mp367b9089c0743a2330f4c6e82b40ee41)</a></p><blockquote><p><b>interaction</b></p><h3>Interactants</h3><table class="grid"><tr><td style="display: none">-</td><td><b>Item[x]</b></td></tr><tr><td style="display: none">*</td><td>Bezafibrat <span style="background: LightGoldenRodYellow; margin: 4px; border: 1px solid khaki"> (#Y9449Q51XH)</span></td></tr></table></blockquote></div>
        </text>
        <identifier>
          <use value="official"/>
          <system value="https://gsrs.ncats.nih.gov/ginas/app/beta/"/>
          <value value="Y9449Q51XH"/>
        </identifier>
        <type value="interaction"/>
        <subject>
          <reference value="MedicinalProductDefinition/mp367b9089c0743a2330f4c6e82b40ee41"/>
        </subject>
        <interaction>
          <interactant>
            <itemCodeableConcept>
              <coding>
                <system value="https://gsrs.ncats.nih.gov/ginas/app/beta/"/>
                <code value="Y9449Q51XH"/>
                <display value="Bezafibrat"/>
              </coding>
            </itemCodeableConcept>
          </interactant>
        </interaction>
      </ClinicalUseDefinition>
    </resource>
  </entry>
  <entry>
    <fullUrl value="http://hl7.eu/fhir/ig/gravitate-health/Ingredient/ingredient-for-suliqua-insulinglargine"/>
    <resource>
      <Ingredient>
        <id value="ingredient-for-suliqua-insulinglargine"/>
        <meta>
          <profile value="http://hl7.org/fhir/uv/emedicinal-product-info/StructureDefinition/Ingredient-uv-epi"/>
        </meta>
        <text>
          <status value="generated"/><div xmlns="http://www.w3.org/1999/xhtml"><a name="Ingredient_ingredient-for-suliqua-insulinglargine"> </a><p><b>Generated Narrative: Ingredient</b><a name="ingredient-for-suliqua-insulinglargine"> </a><a name="hcingredient-for-suliqua-insulinglargine"> </a></p><div style="display: inline-block; background-color: #d9e0e7; padding: 6px; margin: 4px; border: 1px solid #8da1b4; border-radius: 5px; line-height: 60%"><p style="margin-bottom: 0px">Resource Ingredient &quot;ingredient-for-suliqua-insulinglargine&quot; </p><p style="margin-bottom: 0px">Profile: <a href="https://build.fhir.org/ig/HL7/emedicinal-product-info//StructureDefinition-Ingredient-uv-epi.html">Ingredient (ePI)</a></p></div><p><b>identifier</b>: <code>https://gsrs.ncats.nih.gov/ginas/app/beta</code>/2ZM8CX04RZ (use: OFFICIAL)</p><p><b>status</b>: active</p><p><b>for</b>: </p><ul><li><a href="#ManufacturedItemDefinition_mid-e2464a7d3d627b9df9bef5bc3b263fb4">See above (ManufacturedItemDefinition/mid-e2464a7d3d627b9df9bef5bc3b263fb4)</a></li><li><a href="#MedicinalProductDefinition_mp367b9089c0743a2330f4c6e82b40ee41">See above (MedicinalProductDefinition/mp367b9089c0743a2330f4c6e82b40ee41)</a></li><li><a href="#AdministrableProductDefinition_ap-e2464a7d3d627b9df9bef5bc3b263fb4">See above (AdministrableProductDefinition/ap-e2464a7d3d627b9df9bef5bc3b263fb4)</a></li></ul><p><b>role</b>: Active <span style="background: LightGoldenRodYellow; margin: 4px; border: 1px solid khaki"> (rmswi#100000072072)</span></p><blockquote><p><b>substance</b></p><h3>Codes</h3><table class="grid"><tr><td style="display: none">-</td><td><b>Concept</b></td></tr><tr><td style="display: none">*</td><td>Insulin glargine <span style="background: LightGoldenRodYellow; margin: 4px; border: 1px solid khaki"> (beta#2ZM8CX04RZ)</span></td></tr></table><h3>Strengths</h3><table class="grid"><tr><td style="display: none">-</td><td><b>Presentation[x]</b></td><td><b>Basis</b></td></tr><tr><td style="display: none">*</td><td>100 U/ml<span style="background: LightGoldenRodYellow"> (Details: UCUM code U/ml = 'U/ml')</span></td><td>active ingredient - basis of strength <span style="background: LightGoldenRodYellow; margin: 4px; border: 1px solid khaki"> (<a href="http://terminology.hl7.org/5.3.0/CodeSystem-v3-RoleClass.html">RoleClass</a>#ACTIB)</span></td></tr></table></blockquote></div>
        </text>
        <identifier>
          <use value="official"/>
          <system value="https://gsrs.ncats.nih.gov/ginas/app/beta"/>
          <value value="2ZM8CX04RZ"/>
        </identifier>
        <status value="active"/>
        <for>
          <reference value="ManufacturedItemDefinition/mid-e2464a7d3d627b9df9bef5bc3b263fb4"/>
        </for>
        <for>
          <reference value="MedicinalProductDefinition/mp367b9089c0743a2330f4c6e82b40ee41"/>
        </for>
        <for>
          <reference value="AdministrableProductDefinition/ap-e2464a7d3d627b9df9bef5bc3b263fb4"/>
        </for>
        <role>
          <coding>
            <system value="https://spor.ema.europa.eu/rmswi"/>
            <code value="100000072072"/>
            <display value="Active"/>
          </coding>
        </role>
        <substance>
          <code>
            <concept>
              <coding>
                <system value="https://gsrs.ncats.nih.gov/ginas/app/beta"/>
                <code value="2ZM8CX04RZ"/>
                <display value="Insulin glargine"/>
              </coding>
            </concept>
          </code>
          <strength>
            <presentationQuantity>
              <value value="100"/>
              <system value="http://unitsofmeasure.org"/>
              <code value="U/ml"/>
            </presentationQuantity>
            <basis>
              <coding>
                <system value="http://terminology.hl7.org/CodeSystem/v3-RoleClass"/>
                <code value="ACTIB"/>
                <display value="active ingredient - basis of strength"/>
              </coding>
            </basis>
          </strength>
        </substance>
      </Ingredient>
    </resource>
  </entry>
  <entry>
    <fullUrl value="http://hl7.eu/fhir/ig/gravitate-health/Ingredient/ingredient-for-suliqua-lixisenatide"/>
    <resource>
      <Ingredient>
        <id value="ingredient-for-suliqua-lixisenatide"/>
        <meta>
          <profile value="http://hl7.org/fhir/uv/emedicinal-product-info/StructureDefinition/Ingredient-uv-epi"/>
        </meta>
        <text>
          <status value="generated"/><div xmlns="http://www.w3.org/1999/xhtml"><a name="Ingredient_ingredient-for-suliqua-lixisenatide"> </a><p><b>Generated Narrative: Ingredient</b><a name="ingredient-for-suliqua-lixisenatide"> </a><a name="hcingredient-for-suliqua-lixisenatide"> </a></p><div style="display: inline-block; background-color: #d9e0e7; padding: 6px; margin: 4px; border: 1px solid #8da1b4; border-radius: 5px; line-height: 60%"><p style="margin-bottom: 0px">Resource Ingredient &quot;ingredient-for-suliqua-lixisenatide&quot; </p><p style="margin-bottom: 0px">Profile: <a href="https://build.fhir.org/ig/HL7/emedicinal-product-info//StructureDefinition-Ingredient-uv-epi.html">Ingredient (ePI)</a></p></div><p><b>identifier</b>: <code>https://gsrs.ncats.nih.gov/ginas/app/beta</code>/74O62BB01U (use: OFFICIAL)</p><p><b>status</b>: active</p><p><b>for</b>: </p><ul><li><a href="#ManufacturedItemDefinition_mid-e2464a7d3d627b9df9bef5bc3b263fb4">See above (ManufacturedItemDefinition/mid-e2464a7d3d627b9df9bef5bc3b263fb4)</a></li><li><a href="#MedicinalProductDefinition_mp367b9089c0743a2330f4c6e82b40ee41">See above (MedicinalProductDefinition/mp367b9089c0743a2330f4c6e82b40ee41)</a></li><li><a href="#AdministrableProductDefinition_ap-e2464a7d3d627b9df9bef5bc3b263fb4">See above (AdministrableProductDefinition/ap-e2464a7d3d627b9df9bef5bc3b263fb4)</a></li></ul><p><b>role</b>: Active <span style="background: LightGoldenRodYellow; margin: 4px; border: 1px solid khaki"> (rmswi#100000072072)</span></p><blockquote><p><b>substance</b></p><h3>Codes</h3><table class="grid"><tr><td style="display: none">-</td><td><b>Concept</b></td></tr><tr><td style="display: none">*</td><td>Lixisenatide <span style="background: LightGoldenRodYellow; margin: 4px; border: 1px solid khaki"> (beta#74O62BB01U)</span></td></tr></table><h3>Strengths</h3><table class="grid"><tr><td style="display: none">-</td><td><b>Presentation[x]</b></td><td><b>Basis</b></td></tr><tr><td style="display: none">*</td><td>50 ug/ml<span style="background: LightGoldenRodYellow"> (Details: UCUM code ug/ml = 'ug/ml')</span></td><td>active ingredient - basis of strength <span style="background: LightGoldenRodYellow; margin: 4px; border: 1px solid khaki"> (<a href="http://terminology.hl7.org/5.3.0/CodeSystem-v3-RoleClass.html">RoleClass</a>#ACTIB)</span></td></tr></table></blockquote></div>
        </text>
        <identifier>
          <use value="official"/>
          <system value="https://gsrs.ncats.nih.gov/ginas/app/beta"/>
          <value value="74O62BB01U"/>
        </identifier>
        <status value="active"/>
        <for>
          <reference value="ManufacturedItemDefinition/mid-e2464a7d3d627b9df9bef5bc3b263fb4"/>
        </for>
        <for>
          <reference value="MedicinalProductDefinition/mp367b9089c0743a2330f4c6e82b40ee41"/>
        </for>
        <for>
          <reference value="AdministrableProductDefinition/ap-e2464a7d3d627b9df9bef5bc3b263fb4"/>
        </for>
        <role>
          <coding>
            <system value="https://spor.ema.europa.eu/rmswi"/>
            <code value="100000072072"/>
            <display value="Active"/>
          </coding>
        </role>
        <substance>
          <code>
            <concept>
              <coding>
                <system value="https://gsrs.ncats.nih.gov/ginas/app/beta"/>
                <code value="74O62BB01U"/>
                <display value="Lixisenatide"/>
              </coding>
            </concept>
          </code>
          <strength>
            <presentationQuantity>
              <value value="50"/>
              <system value="http://unitsofmeasure.org"/>
              <code value="ug/ml"/>
            </presentationQuantity>
            <basis>
              <coding>
                <system value="http://terminology.hl7.org/CodeSystem/v3-RoleClass"/>
                <code value="ACTIB"/>
                <display value="active ingredient - basis of strength"/>
              </coding>
            </basis>
          </strength>
        </substance>
      </Ingredient>
    </resource>
  </entry>
  <entry>
    <fullUrl value="http://hl7.eu/fhir/ig/gravitate-health/Ingredient/ingredient-for-suliqua-glycerol85whodd"/>
    <resource>
      <Ingredient>
        <id value="ingredient-for-suliqua-glycerol85whodd"/>
        <meta>
          <profile value="http://hl7.org/fhir/uv/emedicinal-product-info/StructureDefinition/Ingredient-uv-epi"/>
        </meta>
        <text>
          <status value="generated"/><div xmlns="http://www.w3.org/1999/xhtml"><a name="Ingredient_ingredient-for-suliqua-glycerol85whodd"> </a><p><b>Generated Narrative: Ingredient</b><a name="ingredient-for-suliqua-glycerol85whodd"> </a><a name="hcingredient-for-suliqua-glycerol85whodd"> </a></p><div style="display: inline-block; background-color: #d9e0e7; padding: 6px; margin: 4px; border: 1px solid #8da1b4; border-radius: 5px; line-height: 60%"><p style="margin-bottom: 0px">Resource Ingredient &quot;ingredient-for-suliqua-glycerol85whodd&quot; </p><p style="margin-bottom: 0px">Profile: <a href="https://build.fhir.org/ig/HL7/emedicinal-product-info//StructureDefinition-Ingredient-uv-epi.html">Ingredient (ePI)</a></p></div><p><b>identifier</b>: <code>https://gsrs.ncats.nih.gov/ginas/app/beta</code>/PDC6A3C0OX (use: OFFICIAL)</p><p><b>status</b>: active</p><p><b>for</b>: </p><ul><li><a href="#ManufacturedItemDefinition_mid-e2464a7d3d627b9df9bef5bc3b263fb4">See above (ManufacturedItemDefinition/mid-e2464a7d3d627b9df9bef5bc3b263fb4)</a></li><li><a href="#MedicinalProductDefinition_mp367b9089c0743a2330f4c6e82b40ee41">See above (MedicinalProductDefinition/mp367b9089c0743a2330f4c6e82b40ee41)</a></li><li><a href="#AdministrableProductDefinition_ap-e2464a7d3d627b9df9bef5bc3b263fb4">See above (AdministrableProductDefinition/ap-e2464a7d3d627b9df9bef5bc3b263fb4)</a></li></ul><p><b>role</b>: Excipient <span style="background: LightGoldenRodYellow; margin: 4px; border: 1px solid khaki"> (rmswi#100000072082)</span></p><blockquote><p><b>substance</b></p><h3>Codes</h3><table class="grid"><tr><td style="display: none">-</td><td><b>Concept</b></td></tr><tr><td style="display: none">*</td><td>GLYCEROL 85% [WHO-DD] <span style="background: LightGoldenRodYellow; margin: 4px; border: 1px solid khaki"> (beta#PDC6A3C0OX)</span></td></tr></table></blockquote></div>
        </text>
        <identifier>
          <use value="official"/>
          <system value="https://gsrs.ncats.nih.gov/ginas/app/beta"/>
          <value value="PDC6A3C0OX"/>
        </identifier>
        <status value="active"/>
        <for>
          <reference value="ManufacturedItemDefinition/mid-e2464a7d3d627b9df9bef5bc3b263fb4"/>
        </for>
        <for>
          <reference value="MedicinalProductDefinition/mp367b9089c0743a2330f4c6e82b40ee41"/>
        </for>
        <for>
          <reference value="AdministrableProductDefinition/ap-e2464a7d3d627b9df9bef5bc3b263fb4"/>
        </for>
        <role>
          <coding>
            <system value="https://spor.ema.europa.eu/rmswi"/>
            <code value="100000072082"/>
            <display value="Excipient"/>
          </coding>
        </role>
        <substance>
          <code>
            <concept>
              <coding>
                <system value="https://gsrs.ncats.nih.gov/ginas/app/beta"/>
                <code value="PDC6A3C0OX"/>
                <display value="GLYCEROL 85% [WHO-DD]"/>
              </coding>
            </concept>
          </code>
        </substance>
      </Ingredient>
    </resource>
  </entry>
  <entry>
    <fullUrl value="http://hl7.eu/fhir/ig/gravitate-health/Ingredient/ingredient-for-suliqua-methionine"/>
    <resource>
      <Ingredient>
        <id value="ingredient-for-suliqua-methionine"/>
        <meta>
          <profile value="http://hl7.org/fhir/uv/emedicinal-product-info/StructureDefinition/Ingredient-uv-epi"/>
        </meta>
        <text>
          <status value="generated"/><div xmlns="http://www.w3.org/1999/xhtml"><a name="Ingredient_ingredient-for-suliqua-methionine"> </a><p><b>Generated Narrative: Ingredient</b><a name="ingredient-for-suliqua-methionine"> </a><a name="hcingredient-for-suliqua-methionine"> </a></p><div style="display: inline-block; background-color: #d9e0e7; padding: 6px; margin: 4px; border: 1px solid #8da1b4; border-radius: 5px; line-height: 60%"><p style="margin-bottom: 0px">Resource Ingredient &quot;ingredient-for-suliqua-methionine&quot; </p><p style="margin-bottom: 0px">Profile: <a href="https://build.fhir.org/ig/HL7/emedicinal-product-info//StructureDefinition-Ingredient-uv-epi.html">Ingredient (ePI)</a></p></div><p><b>identifier</b>: <code>https://gsrs.ncats.nih.gov/ginas/app/beta</code>/AE28F7PNPL (use: OFFICIAL)</p><p><b>status</b>: active</p><p><b>for</b>: </p><ul><li><a href="#ManufacturedItemDefinition_mid-e2464a7d3d627b9df9bef5bc3b263fb4">See above (ManufacturedItemDefinition/mid-e2464a7d3d627b9df9bef5bc3b263fb4)</a></li><li><a href="#MedicinalProductDefinition_mp367b9089c0743a2330f4c6e82b40ee41">See above (MedicinalProductDefinition/mp367b9089c0743a2330f4c6e82b40ee41)</a></li><li><a href="#AdministrableProductDefinition_ap-e2464a7d3d627b9df9bef5bc3b263fb4">See above (AdministrableProductDefinition/ap-e2464a7d3d627b9df9bef5bc3b263fb4)</a></li></ul><p><b>role</b>: Excipient <span style="background: LightGoldenRodYellow; margin: 4px; border: 1px solid khaki"> (rmswi#100000072082)</span></p><blockquote><p><b>substance</b></p><h3>Codes</h3><table class="grid"><tr><td style="display: none">-</td><td><b>Concept</b></td></tr><tr><td style="display: none">*</td><td>Methionine <span style="background: LightGoldenRodYellow; margin: 4px; border: 1px solid khaki"> (beta#AE28F7PNPL)</span></td></tr></table></blockquote></div>
        </text>
        <identifier>
          <use value="official"/>
          <system value="https://gsrs.ncats.nih.gov/ginas/app/beta"/>
          <value value="AE28F7PNPL"/>
        </identifier>
        <status value="active"/>
        <for>
          <reference value="ManufacturedItemDefinition/mid-e2464a7d3d627b9df9bef5bc3b263fb4"/>
        </for>
        <for>
          <reference value="MedicinalProductDefinition/mp367b9089c0743a2330f4c6e82b40ee41"/>
        </for>
        <for>
          <reference value="AdministrableProductDefinition/ap-e2464a7d3d627b9df9bef5bc3b263fb4"/>
        </for>
        <role>
          <coding>
            <system value="https://spor.ema.europa.eu/rmswi"/>
            <code value="100000072082"/>
            <display value="Excipient"/>
          </coding>
        </role>
        <substance>
          <code>
            <concept>
              <coding>
                <system value="https://gsrs.ncats.nih.gov/ginas/app/beta"/>
                <code value="AE28F7PNPL"/>
                <display value="Methionine"/>
              </coding>
            </concept>
          </code>
        </substance>
      </Ingredient>
    </resource>
  </entry>
  <entry>
    <fullUrl value="http://hl7.eu/fhir/ig/gravitate-health/Ingredient/ingredient-for-suliqua-metacresol"/>
    <resource>
      <Ingredient>
        <id value="ingredient-for-suliqua-metacresol"/>
        <meta>
          <profile value="http://hl7.org/fhir/uv/emedicinal-product-info/StructureDefinition/Ingredient-uv-epi"/>
        </meta>
        <text>
          <status value="generated"/><div xmlns="http://www.w3.org/1999/xhtml"><a name="Ingredient_ingredient-for-suliqua-metacresol"> </a><p><b>Generated Narrative: Ingredient</b><a name="ingredient-for-suliqua-metacresol"> </a><a name="hcingredient-for-suliqua-metacresol"> </a></p><div style="display: inline-block; background-color: #d9e0e7; padding: 6px; margin: 4px; border: 1px solid #8da1b4; border-radius: 5px; line-height: 60%"><p style="margin-bottom: 0px">Resource Ingredient &quot;ingredient-for-suliqua-metacresol&quot; </p><p style="margin-bottom: 0px">Profile: <a href="https://build.fhir.org/ig/HL7/emedicinal-product-info//StructureDefinition-Ingredient-uv-epi.html">Ingredient (ePI)</a></p></div><p><b>identifier</b>: <code>https://gsrs.ncats.nih.gov/ginas/app/beta</code>/GGO4Y809LO (use: OFFICIAL)</p><p><b>status</b>: active</p><p><b>for</b>: </p><ul><li><a href="#ManufacturedItemDefinition_mid-e2464a7d3d627b9df9bef5bc3b263fb4">See above (ManufacturedItemDefinition/mid-e2464a7d3d627b9df9bef5bc3b263fb4)</a></li><li><a href="#MedicinalProductDefinition_mp367b9089c0743a2330f4c6e82b40ee41">See above (MedicinalProductDefinition/mp367b9089c0743a2330f4c6e82b40ee41)</a></li><li><a href="#AdministrableProductDefinition_ap-e2464a7d3d627b9df9bef5bc3b263fb4">See above (AdministrableProductDefinition/ap-e2464a7d3d627b9df9bef5bc3b263fb4)</a></li></ul><p><b>role</b>: Excipient <span style="background: LightGoldenRodYellow; margin: 4px; border: 1px solid khaki"> (rmswi#100000072082)</span></p><blockquote><p><b>substance</b></p><h3>Codes</h3><table class="grid"><tr><td style="display: none">-</td><td><b>Concept</b></td></tr><tr><td style="display: none">*</td><td>Metacresol <span style="background: LightGoldenRodYellow; margin: 4px; border: 1px solid khaki"> (beta#GGO4Y809LO)</span></td></tr></table></blockquote></div>
        </text>
        <identifier>
          <use value="official"/>
          <system value="https://gsrs.ncats.nih.gov/ginas/app/beta"/>
          <value value="GGO4Y809LO"/>
        </identifier>
        <status value="active"/>
        <for>
          <reference value="ManufacturedItemDefinition/mid-e2464a7d3d627b9df9bef5bc3b263fb4"/>
        </for>
        <for>
          <reference value="MedicinalProductDefinition/mp367b9089c0743a2330f4c6e82b40ee41"/>
        </for>
        <for>
          <reference value="AdministrableProductDefinition/ap-e2464a7d3d627b9df9bef5bc3b263fb4"/>
        </for>
        <role>
          <coding>
            <system value="https://spor.ema.europa.eu/rmswi"/>
            <code value="100000072082"/>
            <display value="Excipient"/>
          </coding>
        </role>
        <substance>
          <code>
            <concept>
              <coding>
                <system value="https://gsrs.ncats.nih.gov/ginas/app/beta"/>
                <code value="GGO4Y809LO"/>
                <display value="Metacresol"/>
              </coding>
            </concept>
          </code>
        </substance>
      </Ingredient>
    </resource>
  </entry>
  <entry>
    <fullUrl value="http://hl7.eu/fhir/ig/gravitate-health/Ingredient/ingredient-for-suliqua-zincchloride"/>
    <resource>
      <Ingredient>
        <id value="ingredient-for-suliqua-zincchloride"/>
        <meta>
          <profile value="http://hl7.org/fhir/uv/emedicinal-product-info/StructureDefinition/Ingredient-uv-epi"/>
        </meta>
        <text>
          <status value="generated"/><div xmlns="http://www.w3.org/1999/xhtml"><a name="Ingredient_ingredient-for-suliqua-zincchloride"> </a><p><b>Generated Narrative: Ingredient</b><a name="ingredient-for-suliqua-zincchloride"> </a><a name="hcingredient-for-suliqua-zincchloride"> </a></p><div style="display: inline-block; background-color: #d9e0e7; padding: 6px; margin: 4px; border: 1px solid #8da1b4; border-radius: 5px; line-height: 60%"><p style="margin-bottom: 0px">Resource Ingredient &quot;ingredient-for-suliqua-zincchloride&quot; </p><p style="margin-bottom: 0px">Profile: <a href="https://build.fhir.org/ig/HL7/emedicinal-product-info//StructureDefinition-Ingredient-uv-epi.html">Ingredient (ePI)</a></p></div><p><b>identifier</b>: <code>https://gsrs.ncats.nih.gov/ginas/app/beta</code>/86Q357L16B (use: OFFICIAL)</p><p><b>status</b>: active</p><p><b>for</b>: </p><ul><li><a href="#ManufacturedItemDefinition_mid-e2464a7d3d627b9df9bef5bc3b263fb4">See above (ManufacturedItemDefinition/mid-e2464a7d3d627b9df9bef5bc3b263fb4)</a></li><li><a href="#MedicinalProductDefinition_mp367b9089c0743a2330f4c6e82b40ee41">See above (MedicinalProductDefinition/mp367b9089c0743a2330f4c6e82b40ee41)</a></li><li><a href="#AdministrableProductDefinition_ap-e2464a7d3d627b9df9bef5bc3b263fb4">See above (AdministrableProductDefinition/ap-e2464a7d3d627b9df9bef5bc3b263fb4)</a></li></ul><p><b>role</b>: Excipient <span style="background: LightGoldenRodYellow; margin: 4px; border: 1px solid khaki"> (rmswi#100000072082)</span></p><blockquote><p><b>substance</b></p><h3>Codes</h3><table class="grid"><tr><td style="display: none">-</td><td><b>Concept</b></td></tr><tr><td style="display: none">*</td><td>Zinc chloride <span style="background: LightGoldenRodYellow; margin: 4px; border: 1px solid khaki"> (beta#86Q357L16B)</span></td></tr></table></blockquote></div>
        </text>
        <identifier>
          <use value="official"/>
          <system value="https://gsrs.ncats.nih.gov/ginas/app/beta"/>
          <value value="86Q357L16B"/>
        </identifier>
        <status value="active"/>
        <for>
          <reference value="ManufacturedItemDefinition/mid-e2464a7d3d627b9df9bef5bc3b263fb4"/>
        </for>
        <for>
          <reference value="MedicinalProductDefinition/mp367b9089c0743a2330f4c6e82b40ee41"/>
        </for>
        <for>
          <reference value="AdministrableProductDefinition/ap-e2464a7d3d627b9df9bef5bc3b263fb4"/>
        </for>
        <role>
          <coding>
            <system value="https://spor.ema.europa.eu/rmswi"/>
            <code value="100000072082"/>
            <display value="Excipient"/>
          </coding>
        </role>
        <substance>
          <code>
            <concept>
              <coding>
                <system value="https://gsrs.ncats.nih.gov/ginas/app/beta"/>
                <code value="86Q357L16B"/>
                <display value="Zinc chloride"/>
              </coding>
            </concept>
          </code>
        </substance>
      </Ingredient>
    </resource>
  </entry>
  <entry>
    <fullUrl value="http://hl7.eu/fhir/ig/gravitate-health/Ingredient/ingredient-for-suliqua-hydrochloricacidiarc"/>
    <resource>
      <Ingredient>
        <id value="ingredient-for-suliqua-hydrochloricacidiarc"/>
        <meta>
          <profile value="http://hl7.org/fhir/uv/emedicinal-product-info/StructureDefinition/Ingredient-uv-epi"/>
        </meta>
        <text>
          <status value="generated"/><div xmlns="http://www.w3.org/1999/xhtml"><a name="Ingredient_ingredient-for-suliqua-hydrochloricacidiarc"> </a><p><b>Generated Narrative: Ingredient</b><a name="ingredient-for-suliqua-hydrochloricacidiarc"> </a><a name="hcingredient-for-suliqua-hydrochloricacidiarc"> </a></p><div style="display: inline-block; background-color: #d9e0e7; padding: 6px; margin: 4px; border: 1px solid #8da1b4; border-radius: 5px; line-height: 60%"><p style="margin-bottom: 0px">Resource Ingredient &quot;ingredient-for-suliqua-hydrochloricacidiarc&quot; </p><p style="margin-bottom: 0px">Profile: <a href="https://build.fhir.org/ig/HL7/emedicinal-product-info//StructureDefinition-Ingredient-uv-epi.html">Ingredient (ePI)</a></p></div><p><b>identifier</b>: <code>https://gsrs.ncats.nih.gov/ginas/app/beta</code>/QTT17582CB (use: OFFICIAL)</p><p><b>status</b>: active</p><p><b>for</b>: </p><ul><li><a href="#ManufacturedItemDefinition_mid-e2464a7d3d627b9df9bef5bc3b263fb4">See above (ManufacturedItemDefinition/mid-e2464a7d3d627b9df9bef5bc3b263fb4)</a></li><li><a href="#MedicinalProductDefinition_mp367b9089c0743a2330f4c6e82b40ee41">See above (MedicinalProductDefinition/mp367b9089c0743a2330f4c6e82b40ee41)</a></li><li><a href="#AdministrableProductDefinition_ap-e2464a7d3d627b9df9bef5bc3b263fb4">See above (AdministrableProductDefinition/ap-e2464a7d3d627b9df9bef5bc3b263fb4)</a></li></ul><p><b>role</b>: Excipient <span style="background: LightGoldenRodYellow; margin: 4px; border: 1px solid khaki"> (rmswi#100000072082)</span></p><blockquote><p><b>substance</b></p><h3>Codes</h3><table class="grid"><tr><td style="display: none">-</td><td><b>Concept</b></td></tr><tr><td style="display: none">*</td><td>HYDROCHLORIC ACID [IARC] <span style="background: LightGoldenRodYellow; margin: 4px; border: 1px solid khaki"> (beta#QTT17582CB)</span></td></tr></table></blockquote></div>
        </text>
        <identifier>
          <use value="official"/>
          <system value="https://gsrs.ncats.nih.gov/ginas/app/beta"/>
          <value value="QTT17582CB"/>
        </identifier>
        <status value="active"/>
        <for>
          <reference value="ManufacturedItemDefinition/mid-e2464a7d3d627b9df9bef5bc3b263fb4"/>
        </for>
        <for>
          <reference value="MedicinalProductDefinition/mp367b9089c0743a2330f4c6e82b40ee41"/>
        </for>
        <for>
          <reference value="AdministrableProductDefinition/ap-e2464a7d3d627b9df9bef5bc3b263fb4"/>
        </for>
        <role>
          <coding>
            <system value="https://spor.ema.europa.eu/rmswi"/>
            <code value="100000072082"/>
            <display value="Excipient"/>
          </coding>
        </role>
        <substance>
          <code>
            <concept>
              <coding>
                <system value="https://gsrs.ncats.nih.gov/ginas/app/beta"/>
                <code value="QTT17582CB"/>
                <display value="HYDROCHLORIC ACID [IARC]"/>
              </coding>
            </concept>
          </code>
        </substance>
      </Ingredient>
    </resource>
  </entry>
  <entry>
    <fullUrl value="http://hl7.eu/fhir/ig/gravitate-health/Ingredient/ingredient-for-suliqua-sterilewaterforinjection"/>
    <resource>
      <Ingredient>
        <id value="ingredient-for-suliqua-sterilewaterforinjection"/>
        <meta>
          <profile value="http://hl7.org/fhir/uv/emedicinal-product-info/StructureDefinition/Ingredient-uv-epi"/>
        </meta>
        <text>
          <status value="generated"/><div xmlns="http://www.w3.org/1999/xhtml"><a name="Ingredient_ingredient-for-suliqua-sterilewaterforinjection"> </a><p><b>Generated Narrative: Ingredient</b><a name="ingredient-for-suliqua-sterilewaterforinjection"> </a><a name="hcingredient-for-suliqua-sterilewaterforinjection"> </a></p><div style="display: inline-block; background-color: #d9e0e7; padding: 6px; margin: 4px; border: 1px solid #8da1b4; border-radius: 5px; line-height: 60%"><p style="margin-bottom: 0px">Resource Ingredient &quot;ingredient-for-suliqua-sterilewaterforinjection&quot; </p><p style="margin-bottom: 0px">Profile: <a href="https://build.fhir.org/ig/HL7/emedicinal-product-info//StructureDefinition-Ingredient-uv-epi.html">Ingredient (ePI)</a></p></div><p><b>identifier</b>: <code>https://gsrs.ncats.nih.gov/ginas/app/beta</code>/059QF0KO0R (use: OFFICIAL)</p><p><b>status</b>: active</p><p><b>for</b>: </p><ul><li><a href="#ManufacturedItemDefinition_mid-e2464a7d3d627b9df9bef5bc3b263fb4">See above (ManufacturedItemDefinition/mid-e2464a7d3d627b9df9bef5bc3b263fb4)</a></li><li><a href="#MedicinalProductDefinition_mp367b9089c0743a2330f4c6e82b40ee41">See above (MedicinalProductDefinition/mp367b9089c0743a2330f4c6e82b40ee41)</a></li><li><a href="#AdministrableProductDefinition_ap-e2464a7d3d627b9df9bef5bc3b263fb4">See above (AdministrableProductDefinition/ap-e2464a7d3d627b9df9bef5bc3b263fb4)</a></li></ul><p><b>role</b>: Excipient <span style="background: LightGoldenRodYellow; margin: 4px; border: 1px solid khaki"> (rmswi#100000072082)</span></p><blockquote><p><b>substance</b></p><h3>Codes</h3><table class="grid"><tr><td style="display: none">-</td><td><b>Concept</b></td></tr><tr><td style="display: none">*</td><td>STERILE WATER FOR INJECTION <span style="background: LightGoldenRodYellow; margin: 4px; border: 1px solid khaki"> (beta#059QF0KO0R)</span></td></tr></table></blockquote></div>
        </text>
        <identifier>
          <use value="official"/>
          <system value="https://gsrs.ncats.nih.gov/ginas/app/beta"/>
          <value value="059QF0KO0R"/>
        </identifier>
        <status value="active"/>
        <for>
          <reference value="ManufacturedItemDefinition/mid-e2464a7d3d627b9df9bef5bc3b263fb4"/>
        </for>
        <for>
          <reference value="MedicinalProductDefinition/mp367b9089c0743a2330f4c6e82b40ee41"/>
        </for>
        <for>
          <reference value="AdministrableProductDefinition/ap-e2464a7d3d627b9df9bef5bc3b263fb4"/>
        </for>
        <role>
          <coding>
            <system value="https://spor.ema.europa.eu/rmswi"/>
            <code value="100000072082"/>
            <display value="Excipient"/>
          </coding>
        </role>
        <substance>
          <code>
            <concept>
              <coding>
                <system value="https://gsrs.ncats.nih.gov/ginas/app/beta"/>
                <code value="059QF0KO0R"/>
                <display value="STERILE WATER FOR INJECTION"/>
              </coding>
            </concept>
          </code>
        </substance>
      </Ingredient>
    </resource>
  </entry>
  <entry>
    <fullUrl value="http://hl7.eu/fhir/ig/gravitate-health/Ingredient/ingredient-for-suliqua-sodiumhydroxide"/>
    <resource>
      <Ingredient>
        <id value="ingredient-for-suliqua-sodiumhydroxide"/>
        <meta>
          <profile value="http://hl7.org/fhir/uv/emedicinal-product-info/StructureDefinition/Ingredient-uv-epi"/>
        </meta>
        <text>
          <status value="generated"/><div xmlns="http://www.w3.org/1999/xhtml"><a name="Ingredient_ingredient-for-suliqua-sodiumhydroxide"> </a><p><b>Generated Narrative: Ingredient</b><a name="ingredient-for-suliqua-sodiumhydroxide"> </a><a name="hcingredient-for-suliqua-sodiumhydroxide"> </a></p><div style="display: inline-block; background-color: #d9e0e7; padding: 6px; margin: 4px; border: 1px solid #8da1b4; border-radius: 5px; line-height: 60%"><p style="margin-bottom: 0px">Resource Ingredient &quot;ingredient-for-suliqua-sodiumhydroxide&quot; </p><p style="margin-bottom: 0px">Profile: <a href="https://build.fhir.org/ig/HL7/emedicinal-product-info//StructureDefinition-Ingredient-uv-epi.html">Ingredient (ePI)</a></p></div><p><b>identifier</b>: <code>https://gsrs.ncats.nih.gov/ginas/app/beta</code>/55X04QC32I (use: OFFICIAL)</p><p><b>status</b>: active</p><p><b>for</b>: </p><ul><li><a href="#ManufacturedItemDefinition_mid-e2464a7d3d627b9df9bef5bc3b263fb4">See above (ManufacturedItemDefinition/mid-e2464a7d3d627b9df9bef5bc3b263fb4)</a></li><li><a href="#MedicinalProductDefinition_mp367b9089c0743a2330f4c6e82b40ee41">See above (MedicinalProductDefinition/mp367b9089c0743a2330f4c6e82b40ee41)</a></li><li><a href="#AdministrableProductDefinition_ap-e2464a7d3d627b9df9bef5bc3b263fb4">See above (AdministrableProductDefinition/ap-e2464a7d3d627b9df9bef5bc3b263fb4)</a></li></ul><p><b>role</b>: Excipient <span style="background: LightGoldenRodYellow; margin: 4px; border: 1px solid khaki"> (rmswi#100000072082)</span></p><blockquote><p><b>substance</b></p><h3>Codes</h3><table class="grid"><tr><td style="display: none">-</td><td><b>Concept</b></td></tr><tr><td style="display: none">*</td><td>Sodium hydroxide <span style="background: LightGoldenRodYellow; margin: 4px; border: 1px solid khaki"> (beta#55X04QC32I)</span></td></tr></table></blockquote></div>
        </text>
        <identifier>
          <use value="official"/>
          <system value="https://gsrs.ncats.nih.gov/ginas/app/beta"/>
          <value value="55X04QC32I"/>
        </identifier>
        <status value="active"/>
        <for>
          <reference value="ManufacturedItemDefinition/mid-e2464a7d3d627b9df9bef5bc3b263fb4"/>
        </for>
        <for>
          <reference value="MedicinalProductDefinition/mp367b9089c0743a2330f4c6e82b40ee41"/>
        </for>
        <for>
          <reference value="AdministrableProductDefinition/ap-e2464a7d3d627b9df9bef5bc3b263fb4"/>
        </for>
        <role>
          <coding>
            <system value="https://spor.ema.europa.eu/rmswi"/>
            <code value="100000072082"/>
            <display value="Excipient"/>
          </coding>
        </role>
        <substance>
          <code>
            <concept>
              <coding>
                <system value="https://gsrs.ncats.nih.gov/ginas/app/beta"/>
                <code value="55X04QC32I"/>
                <display value="Sodium hydroxide"/>
              </coding>
            </concept>
          </code>
        </substance>
      </Ingredient>
    </resource>
  </entry>
  <entry>
    <fullUrl value="http://hl7.eu/fhir/ig/gravitate-health/SubstanceDefinition/substance-insulinglargine"/>
    <resource>
      <SubstanceDefinition>
        <id value="substance-insulinglargine"/>
        <meta>
          <profile value="http://hl7.org/fhir/uv/emedicinal-product-info/StructureDefinition/SubstanceDefinition-uv-epi"/>
        </meta>
        <text>
          <status value="generated"/><div xmlns="http://www.w3.org/1999/xhtml"><a name="SubstanceDefinition_substance-insulinglargine"> </a><p><b>Generated Narrative: SubstanceDefinition</b><a name="substance-insulinglargine"> </a><a name="hcsubstance-insulinglargine"> </a></p><div style="display: inline-block; background-color: #d9e0e7; padding: 6px; margin: 4px; border: 1px solid #8da1b4; border-radius: 5px; line-height: 60%"><p style="margin-bottom: 0px">Resource SubstanceDefinition &quot;substance-insulinglargine&quot; </p><p style="margin-bottom: 0px">Profile: <a href="https://build.fhir.org/ig/HL7/emedicinal-product-info//StructureDefinition-SubstanceDefinition-uv-epi.html">SubstanceDefinition (ePI)</a></p></div><p><b>identifier</b>: <code>https://gsrs.ncats.nih.gov/ginas/app/beta/</code>/2ZM8CX04RZ (use: OFFICIAL)</p><p><b>status</b>: Active <span style="background: LightGoldenRodYellow; margin: 4px; border: 1px solid khaki"> (<a href="http://hl7.org/fhir/R5/codesystem-publication-status.html">PublicationStatus</a>#active)</span></p><p><b>manufacturer</b>: <a href="#Organization_mah-16019cea3a857659d2c5a2018c2260df">See above (Organization/mah-16019cea3a857659d2c5a2018c2260df)</a></p></div>
        </text>
        <identifier>
          <use value="official"/>
          <system value="https://gsrs.ncats.nih.gov/ginas/app/beta/"/>
          <value value="2ZM8CX04RZ"/>
        </identifier>
        <status>
          <coding>
            <system value="http://hl7.org/fhir/publication-status"/>
            <code value="active"/>
          </coding>
        </status>
        <manufacturer>
          <reference value="Organization/mah-16019cea3a857659d2c5a2018c2260df"/>
        </manufacturer>
      </SubstanceDefinition>
    </resource>
  </entry>
  <entry>
    <fullUrl value="http://hl7.eu/fhir/ig/gravitate-health/SubstanceDefinition/substance-lixisenatide"/>
    <resource>
      <SubstanceDefinition>
        <id value="substance-lixisenatide"/>
        <meta>
          <profile value="http://hl7.org/fhir/uv/emedicinal-product-info/StructureDefinition/SubstanceDefinition-uv-epi"/>
        </meta>
        <text>
          <status value="generated"/><div xmlns="http://www.w3.org/1999/xhtml"><a name="SubstanceDefinition_substance-lixisenatide"> </a><p><b>Generated Narrative: SubstanceDefinition</b><a name="substance-lixisenatide"> </a><a name="hcsubstance-lixisenatide"> </a></p><div style="display: inline-block; background-color: #d9e0e7; padding: 6px; margin: 4px; border: 1px solid #8da1b4; border-radius: 5px; line-height: 60%"><p style="margin-bottom: 0px">Resource SubstanceDefinition &quot;substance-lixisenatide&quot; </p><p style="margin-bottom: 0px">Profile: <a href="https://build.fhir.org/ig/HL7/emedicinal-product-info//StructureDefinition-SubstanceDefinition-uv-epi.html">SubstanceDefinition (ePI)</a></p></div><p><b>identifier</b>: <code>https://gsrs.ncats.nih.gov/ginas/app/beta/</code>/74O62BB01U (use: OFFICIAL)</p><p><b>status</b>: Active <span style="background: LightGoldenRodYellow; margin: 4px; border: 1px solid khaki"> (<a href="http://hl7.org/fhir/R5/codesystem-publication-status.html">PublicationStatus</a>#active)</span></p><p><b>manufacturer</b>: <a href="#Organization_mah-16019cea3a857659d2c5a2018c2260df">See above (Organization/mah-16019cea3a857659d2c5a2018c2260df)</a></p></div>
        </text>
        <identifier>
          <use value="official"/>
          <system value="https://gsrs.ncats.nih.gov/ginas/app/beta/"/>
          <value value="74O62BB01U"/>
        </identifier>
        <status>
          <coding>
            <system value="http://hl7.org/fhir/publication-status"/>
            <code value="active"/>
          </coding>
        </status>
        <manufacturer>
          <reference value="Organization/mah-16019cea3a857659d2c5a2018c2260df"/>
        </manufacturer>
      </SubstanceDefinition>
    </resource>
  </entry>
  <entry>
    <fullUrl value="http://hl7.eu/fhir/ig/gravitate-health/AdministrableProductDefinition/ap-e2464a7d3d627b9df9bef5bc3b263fb4"/>
    <resource>
      <AdministrableProductDefinition>
        <id value="ap-e2464a7d3d627b9df9bef5bc3b263fb4"/>
        <meta>
          <profile value="http://hl7.org/fhir/uv/emedicinal-product-info/StructureDefinition/AdministrableProductDefinition-uv-epi"/>
        </meta>
        <text>
          <status value="generated"/><div xmlns="http://www.w3.org/1999/xhtml"><a name="AdministrableProductDefinition_ap-e2464a7d3d627b9df9bef5bc3b263fb4"> </a><p><b>Generated Narrative: AdministrableProductDefinition</b><a name="ap-e2464a7d3d627b9df9bef5bc3b263fb4"> </a><a name="hcap-e2464a7d3d627b9df9bef5bc3b263fb4"> </a></p><div style="display: inline-block; background-color: #d9e0e7; padding: 6px; margin: 4px; border: 1px solid #8da1b4; border-radius: 5px; line-height: 60%"><p style="margin-bottom: 0px">Resource AdministrableProductDefinition &quot;ap-e2464a7d3d627b9df9bef5bc3b263fb4&quot; </p><p style="margin-bottom: 0px">Profile: <a href="https://build.fhir.org/ig/HL7/emedicinal-product-info//StructureDefinition-AdministrableProductDefinition-uv-epi.html">AdministrableProductDefinition (ePI)</a></p></div><p><b>identifier</b>: <code>https://spor.ema.europa.eu/pmswi</code>/id</p><p><b>status</b>: active</p><p><b>formOf</b>: <a href="#MedicinalProductDefinition_mp367b9089c0743a2330f4c6e82b40ee41">See above (MedicinalProductDefinition/mp367b9089c0743a2330f4c6e82b40ee41)</a></p><p><b>administrableDoseForm</b>: Solution <span style="background: LightGoldenRodYellow; margin: 4px; border: 1px solid khaki"> (rmswi#200000016420)</span></p><p><b>unitOfPresentation</b>: Pen <span style="background: LightGoldenRodYellow; margin: 4px; border: 1px solid khaki"> (rmswi#200000002135)</span></p><p><b>producedFrom</b>: <a href="#ManufacturedItemDefinition_mid-e2464a7d3d627b9df9bef5bc3b263fb4">See above (ManufacturedItemDefinition/mid-e2464a7d3d627b9df9bef5bc3b263fb4)</a></p><blockquote><p><b>routeOfAdministration</b></p><p><b>code</b>: Subcutaneous use <span style="background: LightGoldenRodYellow; margin: 4px; border: 1px solid khaki"> (rmswi#100000073633)</span></p><h3>TargetSpecies</h3><table class="grid"><tr><td style="display: none">-</td><td><b>Code</b></td></tr><tr><td style="display: none">*</td><td>Human <span style="background: LightGoldenRodYellow; margin: 4px; border: 1px solid khaki"> (rmswi#100000109093)</span></td></tr></table></blockquote></div>
        </text>
        <identifier>
          <system value="https://spor.ema.europa.eu/pmswi"/>
          <value value="id"/>
        </identifier>
        <status value="active"/>
        <formOf>
          <reference value="MedicinalProductDefinition/mp367b9089c0743a2330f4c6e82b40ee41"/>
        </formOf>
        <administrableDoseForm>
          <coding>
            <system value="https://spor.ema.europa.eu/rmswi"/>
            <code value="200000016420"/>
            <display value="Solution"/>
          </coding>
        </administrableDoseForm>
        <unitOfPresentation>
          <coding>
            <system value="https://spor.ema.europa.eu/rmswi"/>
            <code value="200000002135"/>
            <display value="Pen"/>
          </coding>
        </unitOfPresentation>
        <producedFrom>
          <reference value="ManufacturedItemDefinition/mid-e2464a7d3d627b9df9bef5bc3b263fb4"/>
        </producedFrom>
        <routeOfAdministration>
          <code>
            <coding>
              <system value="https://spor.ema.europa.eu/rmswi"/>
              <code value="100000073633"/>
              <display value="Subcutaneous use"/>
            </coding>
          </code>
          <targetSpecies>
            <code>
              <coding>
                <system value="https://spor.ema.europa.eu/rmswi"/>
                <code value="100000109093"/>
                <display value="Human"/>
              </coding>
            </code>
          </targetSpecies>
        </routeOfAdministration>
      </AdministrableProductDefinition>
    </resource>
  </entry>
  <entry>
    <fullUrl value="http://hl7.eu/fhir/ig/gravitate-health/RegulatedAuthorization/authorizatione2464a7d3d627b9df9bef5bc3b263fb40"/>
    <resource>
      <RegulatedAuthorization>
        <id value="authorizatione2464a7d3d627b9df9bef5bc3b263fb40"/>
        <meta>
          <profile value="http://hl7.org/fhir/uv/emedicinal-product-info/StructureDefinition/RegulatedAuthorization-uv-epi"/>
        </meta>
        <text>
          <status value="generated"/><div xmlns="http://www.w3.org/1999/xhtml"><a name="RegulatedAuthorization_authorizatione2464a7d3d627b9df9bef5bc3b263fb40"> </a><p><b>Generated Narrative: RegulatedAuthorization</b><a name="authorizatione2464a7d3d627b9df9bef5bc3b263fb40"> </a><a name="hcauthorizatione2464a7d3d627b9df9bef5bc3b263fb40"> </a></p><div style="display: inline-block; background-color: #d9e0e7; padding: 6px; margin: 4px; border: 1px solid #8da1b4; border-radius: 5px; line-height: 60%"><p style="margin-bottom: 0px">Resource RegulatedAuthorization &quot;authorizatione2464a7d3d627b9df9bef5bc3b263fb40&quot; </p><p style="margin-bottom: 0px">Profile: <a href="https://build.fhir.org/ig/HL7/emedicinal-product-info//StructureDefinition-RegulatedAuthorization-uv-epi.html">RegulatedAuthorization (ePI)</a></p></div><p><b>identifier</b>: <code>https://spor.ema.europa.eu/pmswi</code>/EU/1/16/1157/001 (use: OFFICIAL)</p><p><b>subject</b>: <a href="#PackagedProductDefinition_ppd-f1cc049dd00785b744b0e0fb928c8569">See above (PackagedProductDefinition/ppd-f1cc049dd00785b744b0e0fb928c8569)</a></p><p><b>type</b>: Marketing Authorisation <span style="background: LightGoldenRodYellow; margin: 4px; border: 1px solid khaki"> (rmswi#220000000061)</span></p><p><b>status</b>: Active <span style="background: LightGoldenRodYellow; margin: 4px; border: 1px solid khaki"> (<a href="http://hl7.org/fhir/R5/codesystem-publication-status.html">PublicationStatus</a>#active)</span></p><p><b>statusDate</b>: 2017-01-11 13:28:17+0000</p><p><b>holder</b>: <a href="#Organization_mah-16019cea3a857659d2c5a2018c2260df">See above (Organization/mah-16019cea3a857659d2c5a2018c2260df)</a></p></div>
        </text>
        <identifier>
          <use value="official"/>
          <system value="https://spor.ema.europa.eu/pmswi"/>
          <value value="EU/1/16/1157/001"/>
        </identifier>
        <subject>
          <reference value="PackagedProductDefinition/ppd-f1cc049dd00785b744b0e0fb928c8569"/>
        </subject>
        <type>
          <coding>
            <system value="https://spor.ema.europa.eu/rmswi"/>
            <code value="220000000061"/>
            <display value="Marketing Authorisation"/>
          </coding>
        </type>
        <status>
          <coding>
            <system value="http://hl7.org/fhir/publication-status"/>
            <code value="active"/>
            <display value="Active"/>
          </coding>
        </status>
        <statusDate value="2017-01-11T13:28:17Z"/>
        <holder>
          <reference value="Organization/mah-16019cea3a857659d2c5a2018c2260df"/>
        </holder>
      </RegulatedAuthorization>
    </resource>
  </entry>
  <entry>
    <fullUrl value="http://hl7.eu/fhir/ig/gravitate-health/RegulatedAuthorization/authorizatione2464a7d3d627b9df9bef5bc3b263fb41"/>
    <resource>
      <RegulatedAuthorization>
        <id value="authorizatione2464a7d3d627b9df9bef5bc3b263fb41"/>
        <meta>
          <profile value="http://hl7.org/fhir/uv/emedicinal-product-info/StructureDefinition/RegulatedAuthorization-uv-epi"/>
        </meta>
        <text>
          <status value="generated"/><div xmlns="http://www.w3.org/1999/xhtml"><a name="RegulatedAuthorization_authorizatione2464a7d3d627b9df9bef5bc3b263fb41"> </a><p><b>Generated Narrative: RegulatedAuthorization</b><a name="authorizatione2464a7d3d627b9df9bef5bc3b263fb41"> </a><a name="hcauthorizatione2464a7d3d627b9df9bef5bc3b263fb41"> </a></p><div style="display: inline-block; background-color: #d9e0e7; padding: 6px; margin: 4px; border: 1px solid #8da1b4; border-radius: 5px; line-height: 60%"><p style="margin-bottom: 0px">Resource RegulatedAuthorization &quot;authorizatione2464a7d3d627b9df9bef5bc3b263fb41&quot; </p><p style="margin-bottom: 0px">Profile: <a href="https://build.fhir.org/ig/HL7/emedicinal-product-info//StructureDefinition-RegulatedAuthorization-uv-epi.html">RegulatedAuthorization (ePI)</a></p></div><p><b>identifier</b>: <code>https://spor.ema.europa.eu/pmswi</code>/EU/1/16/1157/002 (use: OFFICIAL)</p><p><b>subject</b>: <a href="#PackagedProductDefinition_ppd-4ac56d6ecc2aa4ab4110553333662248">See above (PackagedProductDefinition/ppd-4ac56d6ecc2aa4ab4110553333662248)</a></p><p><b>type</b>: Marketing Authorisation <span style="background: LightGoldenRodYellow; margin: 4px; border: 1px solid khaki"> (rmswi#220000000061)</span></p><p><b>status</b>: Active <span style="background: LightGoldenRodYellow; margin: 4px; border: 1px solid khaki"> (<a href="http://hl7.org/fhir/R5/codesystem-publication-status.html">PublicationStatus</a>#active)</span></p><p><b>statusDate</b>: 2017-01-11 13:28:17+0000</p><p><b>holder</b>: <a href="#Organization_mah-16019cea3a857659d2c5a2018c2260df">See above (Organization/mah-16019cea3a857659d2c5a2018c2260df)</a></p></div>
        </text>
        <identifier>
          <use value="official"/>
          <system value="https://spor.ema.europa.eu/pmswi"/>
          <value value="EU/1/16/1157/002"/>
        </identifier>
        <subject>
          <reference value="PackagedProductDefinition/ppd-4ac56d6ecc2aa4ab4110553333662248"/>
        </subject>
        <type>
          <coding>
            <system value="https://spor.ema.europa.eu/rmswi"/>
            <code value="220000000061"/>
            <display value="Marketing Authorisation"/>
          </coding>
        </type>
        <status>
          <coding>
            <system value="http://hl7.org/fhir/publication-status"/>
            <code value="active"/>
            <display value="Active"/>
          </coding>
        </status>
        <statusDate value="2017-01-11T13:28:17Z"/>
        <holder>
          <reference value="Organization/mah-16019cea3a857659d2c5a2018c2260df"/>
        </holder>
      </RegulatedAuthorization>
    </resource>
  </entry>
  <entry>
    <fullUrl value="http://hl7.eu/fhir/ig/gravitate-health/RegulatedAuthorization/authorizatione2464a7d3d627b9df9bef5bc3b263fb42"/>
    <resource>
      <RegulatedAuthorization>
        <id value="authorizatione2464a7d3d627b9df9bef5bc3b263fb42"/>
        <meta>
          <profile value="http://hl7.org/fhir/uv/emedicinal-product-info/StructureDefinition/RegulatedAuthorization-uv-epi"/>
        </meta>
        <text>
          <status value="generated"/><div xmlns="http://www.w3.org/1999/xhtml"><a name="RegulatedAuthorization_authorizatione2464a7d3d627b9df9bef5bc3b263fb42"> </a><p><b>Generated Narrative: RegulatedAuthorization</b><a name="authorizatione2464a7d3d627b9df9bef5bc3b263fb42"> </a><a name="hcauthorizatione2464a7d3d627b9df9bef5bc3b263fb42"> </a></p><div style="display: inline-block; background-color: #d9e0e7; padding: 6px; margin: 4px; border: 1px solid #8da1b4; border-radius: 5px; line-height: 60%"><p style="margin-bottom: 0px">Resource RegulatedAuthorization &quot;authorizatione2464a7d3d627b9df9bef5bc3b263fb42&quot; </p><p style="margin-bottom: 0px">Profile: <a href="https://build.fhir.org/ig/HL7/emedicinal-product-info//StructureDefinition-RegulatedAuthorization-uv-epi.html">RegulatedAuthorization (ePI)</a></p></div><p><b>identifier</b>: <code>https://spor.ema.europa.eu/pmswi</code>/EU/1/16/1157/005 (use: OFFICIAL)</p><p><b>subject</b>: <a href="#PackagedProductDefinition_ppd-5a560e54e674db16fdd59f328eff5f5a">See above (PackagedProductDefinition/ppd-5a560e54e674db16fdd59f328eff5f5a)</a></p><p><b>type</b>: Marketing Authorisation <span style="background: LightGoldenRodYellow; margin: 4px; border: 1px solid khaki"> (rmswi#220000000061)</span></p><p><b>status</b>: Active <span style="background: LightGoldenRodYellow; margin: 4px; border: 1px solid khaki"> (<a href="http://hl7.org/fhir/R5/codesystem-publication-status.html">PublicationStatus</a>#active)</span></p><p><b>statusDate</b>: 2017-01-11 13:28:17+0000</p><p><b>holder</b>: <a href="#Organization_mah-16019cea3a857659d2c5a2018c2260df">See above (Organization/mah-16019cea3a857659d2c5a2018c2260df)</a></p><p><b>regulator</b>: <a href="#Organization_mra-ff74c5498eb163c2fb470e9fd175a0c1">See above (Organization/mra-ff74c5498eb163c2fb470e9fd175a0c1)</a></p></div>
        </text>
        <identifier>
          <use value="official"/>
          <system value="https://spor.ema.europa.eu/pmswi"/>
          <value value="EU/1/16/1157/005"/>
        </identifier>
        <subject>
          <reference value="PackagedProductDefinition/ppd-5a560e54e674db16fdd59f328eff5f5a"/>
        </subject>
        <type>
          <coding>
            <system value="https://spor.ema.europa.eu/rmswi"/>
            <code value="220000000061"/>
            <display value="Marketing Authorisation"/>
          </coding>
        </type>
        <status>
          <coding>
            <system value="http://hl7.org/fhir/publication-status"/>
            <code value="active"/>
            <display value="Active"/>
          </coding>
        </status>
        <statusDate value="2017-01-11T13:28:17Z"/>
        <holder>
          <reference value="Organization/mah-16019cea3a857659d2c5a2018c2260df"/>
        </holder>
        <regulator>
          <reference value="Organization/mra-ff74c5498eb163c2fb470e9fd175a0c1"/>
        </regulator>
      </RegulatedAuthorization>
    </resource>
  </entry>
  <entry>
    <fullUrl value="http://hl7.eu/fhir/ig/gravitate-health/Organization/mah-16019cea3a857659d2c5a2018c2260df"/>
    <resource>
      <Organization>
        <id value="mah-16019cea3a857659d2c5a2018c2260df"/>
        <meta>
          <profile value="http://hl7.org/fhir/uv/emedicinal-product-info/StructureDefinition/Organization-uv-epi"/>
        </meta>
        <text>
          <status value="generated"/><div xmlns="http://www.w3.org/1999/xhtml"><a name="Organization_mah-16019cea3a857659d2c5a2018c2260df"> </a><p><b>Generated Narrative: Organization</b><a name="mah-16019cea3a857659d2c5a2018c2260df"> </a><a name="hcmah-16019cea3a857659d2c5a2018c2260df"> </a></p><div style="display: inline-block; background-color: #d9e0e7; padding: 6px; margin: 4px; border: 1px solid #8da1b4; border-radius: 5px; line-height: 60%"><p style="margin-bottom: 0px">Resource Organization &quot;mah-16019cea3a857659d2c5a2018c2260df&quot; </p><p style="margin-bottom: 0px">Profile: <a href="https://build.fhir.org/ig/HL7/emedicinal-product-info//StructureDefinition-Organization-uv-epi.html">Organization (ePI)</a></p></div><p><b>identifier</b>: <code>https://spor.ema.europa.eu/omswi</code>/ORG-100000789 (use: OFFICIAL)</p><p><b>active</b>: true</p><p><b>type</b>: Marketing authorisation holder <span style="background: LightGoldenRodYellow; margin: 4px; border: 1px solid khaki"> (rmswi#220000000034)</span></p><p><b>name</b>: Sanofi-Aventis Groupe</p><h3>Contacts</h3><table class="grid"><tr><td style="display: none">-</td><td><b>Address</b></td></tr><tr><td style="display: none">*</td><td>54, rue La Boétie F-75008 Paris FR(WORK)</td></tr></table></div>
        </text>
        <identifier>
          <use value="official"/>
          <system value="https://spor.ema.europa.eu/omswi"/>
          <value value="ORG-100000789"/>
        </identifier>
        <active value="true"/>
        <type>
          <coding>
            <system value="https://spor.ema.europa.eu/rmswi"/>
            <code value="220000000034"/>
            <display value="Marketing authorisation holder"/>
          </coding>
        </type>
        <name value="Sanofi-Aventis Groupe"/>
        <contact>
          <address>
            <use value="work"/>
            <type value="physical"/>
            <text value="54, rue La Boétie F-75008 Paris FR"/>
            <line value="54, rue La Boétie F-75008"/>
            <city value="Paris"/>
            <country value="FR"/>
          </address>
        </contact>
      </Organization>
    </resource>
  </entry>
  <entry>
    <fullUrl value="http://hl7.eu/fhir/ig/gravitate-health/Organization/man-174ad598bd1faddba2098648a45613e1"/>
    <resource>
      <Organization>
        <id value="man-174ad598bd1faddba2098648a45613e1"/>
        <meta>
          <profile value="http://hl7.org/fhir/uv/emedicinal-product-info/StructureDefinition/Organization-uv-epi"/>
        </meta>
        <text>
          <status value="generated"/><div xmlns="http://www.w3.org/1999/xhtml"><a name="Organization_man-174ad598bd1faddba2098648a45613e1"> </a><p><b>Generated Narrative: Organization</b><a name="man-174ad598bd1faddba2098648a45613e1"> </a><a name="hcman-174ad598bd1faddba2098648a45613e1"> </a></p><div style="display: inline-block; background-color: #d9e0e7; padding: 6px; margin: 4px; border: 1px solid #8da1b4; border-radius: 5px; line-height: 60%"><p style="margin-bottom: 0px">Resource Organization &quot;man-174ad598bd1faddba2098648a45613e1&quot; </p><p style="margin-bottom: 0px">Profile: <a href="https://build.fhir.org/ig/HL7/emedicinal-product-info//StructureDefinition-Organization-uv-epi.html">Organization (ePI)</a></p></div><p><b>identifier</b>: <code>https://spor.ema.europa.eu/omswi</code>/ORG-100001175 (use: OFFICIAL)</p><p><b>active</b>: true</p><p><b>type</b>: Manufacturer <span style="background: LightGoldenRodYellow; margin: 4px; border: 1px solid khaki"> (rmswi#220000000033)</span></p><p><b>name</b>: Sanofi-Aventis Deutschland GmbH</p><h3>Contacts</h3><table class="grid"><tr><td style="display: none">-</td><td><b>Address</b></td></tr><tr><td style="display: none">*</td><td>Brueningstrasse 50, Industriepark Höchst Frankfurt am Main de(WORK)</td></tr></table></div>
        </text>
        <identifier>
          <use value="official"/>
          <system value="https://spor.ema.europa.eu/omswi"/>
          <value value="ORG-100001175"/>
        </identifier>
        <active value="true"/>
        <type>
          <coding>
            <system value="https://spor.ema.europa.eu/rmswi"/>
            <code value="220000000033"/>
            <display value="Manufacturer"/>
          </coding>
        </type>
        <name value="Sanofi-Aventis Deutschland GmbH"/>
        <contact>
          <address>
            <use value="work"/>
            <type value="physical"/>
            <text value="Brueningstrasse 50, Industriepark Höchst Frankfurt am Main de"/>
            <line value="Brueningstrasse 50, Industriepark Höchst"/>
            <city value="Frankfurt am Main"/>
            <postalCode value="65926.0"/>
            <country value="de"/>
          </address>
        </contact>
      </Organization>
    </resource>
  </entry>
  <entry>
    <fullUrl value="http://hl7.eu/fhir/ig/gravitate-health/Organization/mra-ff74c5498eb163c2fb470e9fd175a0c1"/>
    <resource>
      <Organization>
        <id value="mra-ff74c5498eb163c2fb470e9fd175a0c1"/>
        <meta>
          <profile value="http://hl7.org/fhir/uv/emedicinal-product-info/StructureDefinition/Organization-uv-epi"/>
        </meta>
        <text>
          <status value="generated"/><div xmlns="http://www.w3.org/1999/xhtml"><a name="Organization_mra-ff74c5498eb163c2fb470e9fd175a0c1"> </a><p><b>Generated Narrative: Organization</b><a name="mra-ff74c5498eb163c2fb470e9fd175a0c1"> </a><a name="hcmra-ff74c5498eb163c2fb470e9fd175a0c1"> </a></p><div style="display: inline-block; background-color: #d9e0e7; padding: 6px; margin: 4px; border: 1px solid #8da1b4; border-radius: 5px; line-height: 60%"><p style="margin-bottom: 0px">Resource Organization &quot;mra-ff74c5498eb163c2fb470e9fd175a0c1&quot; </p><p style="margin-bottom: 0px">Profile: <a href="https://build.fhir.org/ig/HL7/emedicinal-product-info//StructureDefinition-Organization-uv-epi.html">Organization (ePI)</a></p></div><p><b>identifier</b>: <code>https://spor.ema.europa.eu/omswi</code>/ORG-100013412 (use: OFFICIAL)</p><p><b>active</b>: true</p><p><b>type</b>: Medicines Regulatory Authority <span style="background: LightGoldenRodYellow; margin: 4px; border: 1px solid khaki"> (rmswi#220000000032)</span></p><p><b>name</b>: European Medicines Agency</p><h3>Contacts</h3><table class="grid"><tr><td style="display: none">-</td><td><b>Address</b></td></tr><tr><td style="display: none">*</td><td>Carretera De Martorell 41 61, Poligono Industrial Nord-Est Amsterdam nl(WORK)</td></tr></table></div>
        </text>
        <identifier>
          <use value="official"/>
          <system value="https://spor.ema.europa.eu/omswi"/>
          <value value="ORG-100013412"/>
        </identifier>
        <active value="true"/>
        <type>
          <coding>
            <system value="https://spor.ema.europa.eu/rmswi"/>
            <code value="220000000032"/>
            <display value="Medicines Regulatory Authority"/>
          </coding>
        </type>
        <name value="European Medicines Agency"/>
        <contact>
          <address>
            <use value="work"/>
            <type value="physical"/>
            <text value="Carretera De Martorell 41 61, Poligono Industrial Nord-Est Amsterdam nl"/>
            <line value="Carretera De Martorell 41 61, Poligono Industrial Nord-Est"/>
            <city value="Amsterdam"/>
            <postalCode value="1083.0"/>
            <country value="nl"/>
          </address>
        </contact>
      </Organization>
    </resource>
  </entry>
  <entry>
    <fullUrl value="http://hl7.eu/fhir/ig/gravitate-health/PackagedProductDefinition/ppd-f1cc049dd00785b744b0e0fb928c8569"/>
    <resource>
      <PackagedProductDefinition>
        <id value="ppd-f1cc049dd00785b744b0e0fb928c8569"/>
        <meta>
          <profile value="http://hl7.org/fhir/uv/emedicinal-product-info/StructureDefinition/PackagedProductDefinition-uv-epi"/>
        </meta>
        <text>
          <status value="generated"/><div xmlns="http://www.w3.org/1999/xhtml"><a name="PackagedProductDefinition_ppd-f1cc049dd00785b744b0e0fb928c8569"> </a><p><b>Generated Narrative: PackagedProductDefinition</b><a name="ppd-f1cc049dd00785b744b0e0fb928c8569"> </a><a name="hcppd-f1cc049dd00785b744b0e0fb928c8569"> </a></p><div style="display: inline-block; background-color: #d9e0e7; padding: 6px; margin: 4px; border: 1px solid #8da1b4; border-radius: 5px; line-height: 60%"><p style="margin-bottom: 0px">Resource PackagedProductDefinition &quot;ppd-f1cc049dd00785b744b0e0fb928c8569&quot; </p><p style="margin-bottom: 0px">Profile: <a href="https://build.fhir.org/ig/HL7/emedicinal-product-info//StructureDefinition-PackagedProductDefinition-uv-epi.html">PackagedProductDefinition (ePI)</a></p></div><p><b>identifier</b>: <code>https://spor.ema.europa.eu/pmswi</code>/EU/1/16/1157/001 (use: OFFICIAL)</p><p><b>name</b>: Suliqua 100 units/ml + 50 micrograms/ml solution for injection in a pre-filled pen 3</p><p><b>type</b>: Chemical Medicinal Product <span style="background: LightGoldenRodYellow; margin: 4px; border: 1px solid khaki"> (rmswi#100000155527)</span></p><p><b>packageFor</b>: <a href="#MedicinalProductDefinition_mp367b9089c0743a2330f4c6e82b40ee41">See above (MedicinalProductDefinition/mp367b9089c0743a2330f4c6e82b40ee41)</a></p><p><b>status</b>: Active <span style="background: LightGoldenRodYellow; margin: 4px; border: 1px solid khaki"> (<a href="http://hl7.org/fhir/R5/codesystem-publication-status.html">PublicationStatus</a>#active)</span></p><p><b>statusDate</b>: 2015-02-07 13:28:17+0000</p><p><b>manufacturer</b>: <a href="#Organization_man-174ad598bd1faddba2098648a45613e1">See above (Organization/man-174ad598bd1faddba2098648a45613e1)</a></p><blockquote><p><b>packaging</b></p><p><b>type</b>: Box <span style="background: LightGoldenRodYellow; margin: 4px; border: 1px solid khaki"> (rmswi#100000073498)</span></p><p><b>quantity</b>: 1</p><p><b>material</b>: Cardboard <span style="background: LightGoldenRodYellow; margin: 4px; border: 1px solid khaki"> (rmswi#200000003529)</span></p><blockquote><p><b>packaging</b></p><p><b>identifier</b>: <code>https://spor.ema.europa.eu/pmswi</code>/123456.0</p><p><b>type</b>: Pre-filled pen <span style="background: LightGoldenRodYellow; margin: 4px; border: 1px solid khaki"> (rmswi#100000073543)</span></p><p><b>quantity</b>: 3</p><p><b>material</b>: Glass type I <span style="background: LightGoldenRodYellow; margin: 4px; border: 1px solid khaki"> (rmswi#200000003204)</span></p><blockquote><p><b>containedItem</b></p></blockquote></blockquote></blockquote></div>
        </text>
        <identifier>
          <use value="official"/>
          <system value="https://spor.ema.europa.eu/pmswi"/>
          <value value="EU/1/16/1157/001"/>
        </identifier>
        <name value="Suliqua 100 units/ml + 50 micrograms/ml solution for injection in a pre-filled pen 3"/>
        <type>
          <coding>
            <system value="https://spor.ema.europa.eu/rmswi"/>
            <code value="100000155527"/>
            <display value="Chemical Medicinal Product"/>
          </coding>
        </type>
        <packageFor>
          <reference value="MedicinalProductDefinition/mp367b9089c0743a2330f4c6e82b40ee41"/>
        </packageFor>
        <status>
          <coding>
            <system value="http://hl7.org/fhir/publication-status"/>
            <code value="active"/>
            <display value="Active"/>
          </coding>
        </status>
        <statusDate value="2015-02-07T13:28:17Z"/>
        <manufacturer>
          <reference value="Organization/man-174ad598bd1faddba2098648a45613e1"/>
        </manufacturer>
        <packaging>
          <type>
            <coding>
              <system value="https://spor.ema.europa.eu/rmswi"/>
              <code value="100000073498"/>
              <display value="Box"/>
            </coding>
          </type>
          <quantity value="1"/>
          <material>
            <coding>
              <system value="https://spor.ema.europa.eu/rmswi"/>
              <code value="200000003529"/>
              <display value="Cardboard"/>
            </coding>
          </material>
          <packaging>
            <identifier>
              <system value="https://spor.ema.europa.eu/pmswi"/>
              <value value="123456.0"/>
            </identifier>
            <type>
              <coding>
                <system value="https://spor.ema.europa.eu/rmswi"/>
                <code value="100000073543"/>
                <display value="Pre-filled pen"/>
              </coding>
            </type>
            <quantity value="3"/>
            <material>
              <coding>
                <system value="https://spor.ema.europa.eu/rmswi"/>
                <code value="200000003204"/>
                <display value="Glass type I"/>
              </coding>
            </material>
            <containedItem>
              <item>
                <reference>
                  <reference value="ManufacturedItemDefinition/mid-e2464a7d3d627b9df9bef5bc3b263fb4"/>
                </reference>
              </item>
            </containedItem>
          </packaging>
        </packaging>
      </PackagedProductDefinition>
    </resource>
  </entry>
  <entry>
    <fullUrl value="http://hl7.eu/fhir/ig/gravitate-health/PackagedProductDefinition/ppd-4ac56d6ecc2aa4ab4110553333662248"/>
    <resource>
      <PackagedProductDefinition>
        <id value="ppd-4ac56d6ecc2aa4ab4110553333662248"/>
        <meta>
          <profile value="http://hl7.org/fhir/uv/emedicinal-product-info/StructureDefinition/PackagedProductDefinition-uv-epi"/>
        </meta>
        <text>
          <status value="generated"/><div xmlns="http://www.w3.org/1999/xhtml"><a name="PackagedProductDefinition_ppd-4ac56d6ecc2aa4ab4110553333662248"> </a><p><b>Generated Narrative: PackagedProductDefinition</b><a name="ppd-4ac56d6ecc2aa4ab4110553333662248"> </a><a name="hcppd-4ac56d6ecc2aa4ab4110553333662248"> </a></p><div style="display: inline-block; background-color: #d9e0e7; padding: 6px; margin: 4px; border: 1px solid #8da1b4; border-radius: 5px; line-height: 60%"><p style="margin-bottom: 0px">Resource PackagedProductDefinition &quot;ppd-4ac56d6ecc2aa4ab4110553333662248&quot; </p><p style="margin-bottom: 0px">Profile: <a href="https://build.fhir.org/ig/HL7/emedicinal-product-info//StructureDefinition-PackagedProductDefinition-uv-epi.html">PackagedProductDefinition (ePI)</a></p></div><p><b>identifier</b>: <code>https://spor.ema.europa.eu/pmswi</code>/EU/1/16/1157/002 (use: OFFICIAL)</p><p><b>name</b>: Suliqua 100 units/ml + 50 micrograms/ml solution for injection in a pre-filled pen 5</p><p><b>type</b>: Chemical Medicinal Product <span style="background: LightGoldenRodYellow; margin: 4px; border: 1px solid khaki"> (rmswi#100000155527)</span></p><p><b>packageFor</b>: <a href="#MedicinalProductDefinition_mp367b9089c0743a2330f4c6e82b40ee41">See above (MedicinalProductDefinition/mp367b9089c0743a2330f4c6e82b40ee41)</a></p><p><b>status</b>: Active <span style="background: LightGoldenRodYellow; margin: 4px; border: 1px solid khaki"> (<a href="http://hl7.org/fhir/R5/codesystem-publication-status.html">PublicationStatus</a>#active)</span></p><p><b>statusDate</b>: 2015-02-07 13:28:17+0000</p><p><b>manufacturer</b>: <a href="#Organization_man-174ad598bd1faddba2098648a45613e1">See above (Organization/man-174ad598bd1faddba2098648a45613e1)</a></p><blockquote><p><b>packaging</b></p><p><b>type</b>: Box <span style="background: LightGoldenRodYellow; margin: 4px; border: 1px solid khaki"> (rmswi#100000073498)</span></p><p><b>quantity</b>: 1</p><p><b>material</b>: Cardboard <span style="background: LightGoldenRodYellow; margin: 4px; border: 1px solid khaki"> (rmswi#200000003529)</span></p><blockquote><p><b>packaging</b></p><p><b>type</b>: Pre-filled pen <span style="background: LightGoldenRodYellow; margin: 4px; border: 1px solid khaki"> (rmswi#100000073543)</span></p><p><b>quantity</b>: 5</p><p><b>material</b>: Glass type I <span style="background: LightGoldenRodYellow; margin: 4px; border: 1px solid khaki"> (rmswi#200000003204)</span></p><blockquote><p><b>containedItem</b></p></blockquote></blockquote></blockquote></div>
        </text>
        <identifier>
          <use value="official"/>
          <system value="https://spor.ema.europa.eu/pmswi"/>
          <value value="EU/1/16/1157/002"/>
        </identifier>
        <name value="Suliqua 100 units/ml + 50 micrograms/ml solution for injection in a pre-filled pen 5"/>
        <type>
          <coding>
            <system value="https://spor.ema.europa.eu/rmswi"/>
            <code value="100000155527"/>
            <display value="Chemical Medicinal Product"/>
          </coding>
        </type>
        <packageFor>
          <reference value="MedicinalProductDefinition/mp367b9089c0743a2330f4c6e82b40ee41"/>
        </packageFor>
        <status>
          <coding>
            <system value="http://hl7.org/fhir/publication-status"/>
            <code value="active"/>
            <display value="Active"/>
          </coding>
        </status>
        <statusDate value="2015-02-07T13:28:17Z"/>
        <manufacturer>
          <reference value="Organization/man-174ad598bd1faddba2098648a45613e1"/>
        </manufacturer>
        <packaging>
          <type>
            <coding>
              <system value="https://spor.ema.europa.eu/rmswi"/>
              <code value="100000073498"/>
              <display value="Box"/>
            </coding>
          </type>
          <quantity value="1"/>
          <material>
            <coding>
              <system value="https://spor.ema.europa.eu/rmswi"/>
              <code value="200000003529"/>
              <display value="Cardboard"/>
            </coding>
          </material>
          <packaging>
            <type>
              <coding>
                <system value="https://spor.ema.europa.eu/rmswi"/>
                <code value="100000073543"/>
                <display value="Pre-filled pen"/>
              </coding>
            </type>
            <quantity value="5"/>
            <material>
              <coding>
                <system value="https://spor.ema.europa.eu/rmswi"/>
                <code value="200000003204"/>
                <display value="Glass type I"/>
              </coding>
            </material>
            <containedItem>
              <item>
                <reference>
                  <reference value="ManufacturedItemDefinition/mid-e2464a7d3d627b9df9bef5bc3b263fb4"/>
                </reference>
              </item>
            </containedItem>
          </packaging>
        </packaging>
      </PackagedProductDefinition>
    </resource>
  </entry>
  <entry>
    <fullUrl value="http://hl7.eu/fhir/ig/gravitate-health/PackagedProductDefinition/ppd-5a560e54e674db16fdd59f328eff5f5a"/>
    <resource>
      <PackagedProductDefinition>
        <id value="ppd-5a560e54e674db16fdd59f328eff5f5a"/>
        <meta>
          <profile value="http://hl7.org/fhir/uv/emedicinal-product-info/StructureDefinition/PackagedProductDefinition-uv-epi"/>
        </meta>
        <text>
          <status value="generated"/><div xmlns="http://www.w3.org/1999/xhtml"><a name="PackagedProductDefinition_ppd-5a560e54e674db16fdd59f328eff5f5a"> </a><p><b>Generated Narrative: PackagedProductDefinition</b><a name="ppd-5a560e54e674db16fdd59f328eff5f5a"> </a><a name="hcppd-5a560e54e674db16fdd59f328eff5f5a"> </a></p><div style="display: inline-block; background-color: #d9e0e7; padding: 6px; margin: 4px; border: 1px solid #8da1b4; border-radius: 5px; line-height: 60%"><p style="margin-bottom: 0px">Resource PackagedProductDefinition &quot;ppd-5a560e54e674db16fdd59f328eff5f5a&quot; </p><p style="margin-bottom: 0px">Profile: <a href="https://build.fhir.org/ig/HL7/emedicinal-product-info//StructureDefinition-PackagedProductDefinition-uv-epi.html">PackagedProductDefinition (ePI)</a></p></div><p><b>identifier</b>: <code>https://spor.ema.europa.eu/pmswi</code>/EU/1/16/1157/005 (use: OFFICIAL)</p><p><b>name</b>: Suliqua 100 units/ml + 50 micrograms/ml solution for injection in a pre-filled pen 10</p><p><b>type</b>: Chemical Medicinal Product <span style="background: LightGoldenRodYellow; margin: 4px; border: 1px solid khaki"> (rmswi#100000155527)</span></p><p><b>packageFor</b>: <a href="#MedicinalProductDefinition_mp367b9089c0743a2330f4c6e82b40ee41">See above (MedicinalProductDefinition/mp367b9089c0743a2330f4c6e82b40ee41)</a></p><p><b>status</b>: Active <span style="background: LightGoldenRodYellow; margin: 4px; border: 1px solid khaki"> (<a href="http://hl7.org/fhir/R5/codesystem-publication-status.html">PublicationStatus</a>#active)</span></p><p><b>statusDate</b>: 2015-02-07 13:28:17+0000</p><p><b>manufacturer</b>: <a href="#Organization_man-174ad598bd1faddba2098648a45613e1">See above (Organization/man-174ad598bd1faddba2098648a45613e1)</a></p><blockquote><p><b>packaging</b></p><p><b>type</b>: Box <span style="background: LightGoldenRodYellow; margin: 4px; border: 1px solid khaki"> (rmswi#100000073498)</span></p><p><b>quantity</b>: 1</p><p><b>material</b>: Cardboard <span style="background: LightGoldenRodYellow; margin: 4px; border: 1px solid khaki"> (rmswi#200000003529)</span></p><blockquote><p><b>packaging</b></p><p><b>type</b>: Pre-filled pen <span style="background: LightGoldenRodYellow; margin: 4px; border: 1px solid khaki"> (rmswi#100000073543)</span></p><p><b>quantity</b>: 10</p><p><b>material</b>: Glass type I <span style="background: LightGoldenRodYellow; margin: 4px; border: 1px solid khaki"> (rmswi#200000003204)</span></p><blockquote><p><b>containedItem</b></p></blockquote></blockquote></blockquote></div>
        </text>
        <identifier>
          <use value="official"/>
          <system value="https://spor.ema.europa.eu/pmswi"/>
          <value value="EU/1/16/1157/005"/>
        </identifier>
        <name value="Suliqua 100 units/ml + 50 micrograms/ml solution for injection in a pre-filled pen 10"/>
        <type>
          <coding>
            <system value="https://spor.ema.europa.eu/rmswi"/>
            <code value="100000155527"/>
            <display value="Chemical Medicinal Product"/>
          </coding>
        </type>
        <packageFor>
          <reference value="MedicinalProductDefinition/mp367b9089c0743a2330f4c6e82b40ee41"/>
        </packageFor>
        <status>
          <coding>
            <system value="http://hl7.org/fhir/publication-status"/>
            <code value="active"/>
            <display value="Active"/>
          </coding>
        </status>
        <statusDate value="2015-02-07T13:28:17Z"/>
        <manufacturer>
          <reference value="Organization/man-174ad598bd1faddba2098648a45613e1"/>
        </manufacturer>
        <packaging>
          <type>
            <coding>
              <system value="https://spor.ema.europa.eu/rmswi"/>
              <code value="100000073498"/>
              <display value="Box"/>
            </coding>
          </type>
          <quantity value="1"/>
          <material>
            <coding>
              <system value="https://spor.ema.europa.eu/rmswi"/>
              <code value="200000003529"/>
              <display value="Cardboard"/>
            </coding>
          </material>
          <packaging>
            <type>
              <coding>
                <system value="https://spor.ema.europa.eu/rmswi"/>
                <code value="100000073543"/>
                <display value="Pre-filled pen"/>
              </coding>
            </type>
            <quantity value="10"/>
            <material>
              <coding>
                <system value="https://spor.ema.europa.eu/rmswi"/>
                <code value="200000003204"/>
                <display value="Glass type I"/>
              </coding>
            </material>
            <containedItem>
              <item>
                <reference>
                  <reference value="ManufacturedItemDefinition/mid-e2464a7d3d627b9df9bef5bc3b263fb4"/>
                </reference>
              </item>
            </containedItem>
          </packaging>
        </packaging>
      </PackagedProductDefinition>
    </resource>
  </entry>
  <entry>
    <fullUrl value="http://hl7.eu/fhir/ig/gravitate-health/MedicinalProductDefinition/mp367b9089c0743a2330f4c6e82b40ee41"/>
    <resource>
      <MedicinalProductDefinition>
        <id value="mp367b9089c0743a2330f4c6e82b40ee41"/>
        <meta>
          <profile value="http://hl7.org/fhir/uv/emedicinal-product-info/StructureDefinition/MedicinalProductDefinition-uv-epi"/>
        </meta>
        <text>
          <status value="generated"/><div xmlns="http://www.w3.org/1999/xhtml"><a name="MedicinalProductDefinition_mp367b9089c0743a2330f4c6e82b40ee41"> </a><p><b>Generated Narrative: MedicinalProductDefinition</b><a name="mp367b9089c0743a2330f4c6e82b40ee41"> </a><a name="hcmp367b9089c0743a2330f4c6e82b40ee41"> </a></p><div style="display: inline-block; background-color: #d9e0e7; padding: 6px; margin: 4px; border: 1px solid #8da1b4; border-radius: 5px; line-height: 60%"><p style="margin-bottom: 0px">Resource MedicinalProductDefinition &quot;mp367b9089c0743a2330f4c6e82b40ee41&quot; </p><p style="margin-bottom: 0px">Profile: <a href="https://build.fhir.org/ig/HL7/emedicinal-product-info//StructureDefinition-MedicinalProductDefinition-uv-epi.html">MedicinalProductDefinition (ePI)</a></p></div><p><b>identifier</b>: <code>https://spor.ema.europa.eu/pmswi/#/</code>/EU/1/16/1157/002</p><p><b>type</b>: Medicinal Product <span style="background: LightGoldenRodYellow; margin: 4px; border: 1px solid khaki"> (<a href="http://hl7.org/fhir/R5/codesystem-medicinal-product-type.html">Medicinal Product Type</a>#MedicinalProduct)</span></p><p><b>domain</b>: Human use <span style="background: LightGoldenRodYellow; margin: 4px; border: 1px solid khaki"> (<a href="http://hl7.org/fhir/R5/codesystem-medicinal-product-domain.html">Medicinal Product Domain</a>#Human)</span></p><p><b>status</b>: active <span style="background: LightGoldenRodYellow; margin: 4px; border: 1px solid khaki"> (<a href="http://hl7.org/fhir/R5/codesystem-publication-status.html">PublicationStatus</a>#active)</span></p><p><b>indication</b>: Suliqua is indicated for the treatment of adults with insufficiently controlled type 2 diabetes mellitus to improve glycaemic control as an adjunct to diet and exercise in addition to metformin with or without SGLT-2 inhibitors.</p><p><b>legalStatusOfSupply</b>: Medicinal product subject to medical prescription <span style="background: LightGoldenRodYellow; margin: 4px; border: 1px solid khaki"> (rmswi#100000072084)</span></p><p><b>classification</b>: insulin glargine and lixisenatide <span style="background: LightGoldenRodYellow; margin: 4px; border: 1px solid khaki"> (<a href="http://terminology.hl7.org/5.3.0/CodeSystem-v3-WC.html">WHO ATC</a>#A10AE54)</span></p><blockquote><p><b>name</b></p><p><b>productName</b>: Suliqua 100 units/ml + 50 micrograms/ml solution for injection in a pre-filled pen</p><p><b>type</b>: Full name <span style="background: LightGoldenRodYellow; margin: 4px; border: 1px solid khaki"> (220000000000#220000000001)</span></p><blockquote><p><b>part</b></p><p><b>part</b>: Suliqua</p><p><b>type</b>: Invented name part <span style="background: LightGoldenRodYellow; margin: 4px; border: 1px solid khaki"> (220000000000#220000000002)</span></p></blockquote><blockquote><p><b>part</b></p><p><b>part</b>: Insulin glargine, Lixisenatide</p><p><b>type</b>: Scientific name part <span style="background: LightGoldenRodYellow; margin: 4px; border: 1px solid khaki"> (220000000000#220000000003)</span></p></blockquote><blockquote><p><b>part</b></p><p><b>part</b>: 100 units/ml + 50 ug/ml</p><p><b>type</b>: Strength part <span style="background: LightGoldenRodYellow; margin: 4px; border: 1px solid khaki"> (220000000000#220000000004)</span></p></blockquote><blockquote><p><b>part</b></p><p><b>part</b>: Solution for injection</p><p><b>type</b>: Pharmaceutical dose form part <span style="background: LightGoldenRodYellow; margin: 4px; border: 1px solid khaki"> (220000000000#220000000005)</span></p></blockquote><h3>Usages</h3><table class="grid"><tr><td style="display: none">-</td><td><b>Country</b></td><td><b>Jurisdiction</b></td><td><b>Language</b></td></tr><tr><td style="display: none">*</td><td>Denmark <span style="background: LightGoldenRodYellow; margin: 4px; border: 1px solid khaki"> (<a href="http://terminology.hl7.org/5.3.0/CodeSystem-ISO3166Part1.html">ISO 3166-1 Codes for the representation of names of countries and their subdivisions — Part 1: Country code</a>#DK)</span></td><td>Denmark <span style="background: LightGoldenRodYellow; margin: 4px; border: 1px solid khaki"> (<a href="http://terminology.hl7.org/5.3.0/CodeSystem-ISO3166Part1.html">ISO 3166-1 Codes for the representation of names of countries and their subdivisions — Part 1: Country code</a>#DK)</span></td><td>English <span style="background: LightGoldenRodYellow; margin: 4px; border: 1px solid khaki"> (<a href="http://terminology.hl7.org/5.3.0/CodeSystem-v3-ietf3066.html">Tags for the Identification of Languages</a>#en)</span></td></tr></table></blockquote></div>
        </text>
        <identifier>
          <system value="https://spor.ema.europa.eu/pmswi/#/"/>
          <value value="EU/1/16/1157/002"/>
        </identifier>
        <type>
          <coding>
            <system value="http://hl7.org/fhir/medicinal-product-type"/>
            <code value="MedicinalProduct"/>
            <display value="Medicinal Product"/>
          </coding>
        </type>
        <domain>
          <coding>
            <system value="http://hl7.org/fhir/medicinal-product-domain"/>
            <code value="Human"/>
            <display value="Human use"/>
          </coding>
        </domain>
        <status>
          <coding>
            <system value="http://hl7.org/fhir/publication-status"/>
            <code value="active"/>
            <display value="active"/>
          </coding>
        </status>
        <indication value="Suliqua is indicated for the treatment of adults with insufficiently controlled type 2 diabetes mellitus to improve glycaemic control as an adjunct to diet and exercise in addition to metformin with or without SGLT-2 inhibitors."/>
        <legalStatusOfSupply>
          <coding>
            <system value="https://spor.ema.europa.eu/rmswi"/>
            <code value="100000072084"/>
            <display value="Medicinal product subject to medical prescription"/>
          </coding>
        </legalStatusOfSupply>
        <classification>
          <coding>
            <system value="http://www.whocc.no/atc"/>
            <code value="A10AE54"/>
            <display value="insulin glargine and lixisenatide"/>
          </coding>
        </classification>
        <name>
          <productName value="Suliqua 100 units/ml + 50 micrograms/ml solution for injection in a pre-filled pen"/>
          <type>
            <coding>
              <system value="https://spor.ema.europa.eu/lists/220000000000"/>
              <code value="220000000001"/>
              <display value="Full name"/>
            </coding>
          </type>
          <part>
            <part value="Suliqua"/>
            <type>
              <coding>
                <system value="https://spor.ema.europa.eu/lists/220000000000"/>
                <code value="220000000002"/>
                <display value="Invented name part"/>
              </coding>
            </type>
          </part>
          <part>
            <part value="Insulin glargine, Lixisenatide"/>
            <type>
              <coding>
                <system value="https://spor.ema.europa.eu/lists/220000000000"/>
                <code value="220000000003"/>
                <display value="Scientific name part"/>
              </coding>
            </type>
          </part>
          <part>
            <part value="100 units/ml + 50 ug/ml"/>
            <type>
              <coding>
                <system value="https://spor.ema.europa.eu/lists/220000000000"/>
                <code value="220000000004"/>
                <display value="Strength part"/>
              </coding>
            </type>
          </part>
          <part>
            <part value="Solution for injection"/>
            <type>
              <coding>
                <system value="https://spor.ema.europa.eu/lists/220000000000"/>
                <code value="220000000005"/>
                <display value="Pharmaceutical dose form part"/>
              </coding>
            </type>
          </part>
          <usage>
            <country>
              <coding>
                <system value="urn:iso:std:iso:3166"/>
                <code value="DK"/>
                <display value="Denmark"/>
              </coding>
            </country>
            <jurisdiction>
              <coding>
                <system value="urn:iso:std:iso:3166"/>
                <code value="DK"/>
                <display value="Denmark"/>
              </coding>
            </jurisdiction>
            <language>
              <coding>
                <system value="urn:ietf:bcp:47"/>
                <code value="en"/>
                <display value="English"/>
              </coding>
            </language>
          </usage>
        </name>
      </MedicinalProductDefinition>
    </resource>
  </entry>
  <entry>
    <fullUrl value="http://hl7.eu/fhir/ig/gravitate-health/ManufacturedItemDefinition/mid-e2464a7d3d627b9df9bef5bc3b263fb4"/>
    <resource>
      <ManufacturedItemDefinition>
        <id value="mid-e2464a7d3d627b9df9bef5bc3b263fb4"/>
        <meta>
          <profile value="http://hl7.org/fhir/uv/emedicinal-product-info/StructureDefinition/ManufacturedItemDefinition-uv-epi"/>
        </meta>
        <text>
          <status value="generated"/><div xmlns="http://www.w3.org/1999/xhtml"><a name="ManufacturedItemDefinition_mid-e2464a7d3d627b9df9bef5bc3b263fb4"> </a><p><b>Generated Narrative: ManufacturedItemDefinition</b><a name="mid-e2464a7d3d627b9df9bef5bc3b263fb4"> </a><a name="hcmid-e2464a7d3d627b9df9bef5bc3b263fb4"> </a></p><div style="display: inline-block; background-color: #d9e0e7; padding: 6px; margin: 4px; border: 1px solid #8da1b4; border-radius: 5px; line-height: 60%"><p style="margin-bottom: 0px">Resource ManufacturedItemDefinition &quot;mid-e2464a7d3d627b9df9bef5bc3b263fb4&quot; </p><p style="margin-bottom: 0px">Profile: <a href="https://build.fhir.org/ig/HL7/emedicinal-product-info//StructureDefinition-ManufacturedItemDefinition-uv-epi.html">ManufacturedItemDefinition (ePI)</a></p></div><p><b>identifier</b>: <code>https://spor.ema.europa.eu/pmswi</code>/xxx (use: OFFICIAL)</p><p><b>status</b>: active</p><p><b>manufacturedDoseForm</b>: Solution <span style="background: LightGoldenRodYellow; margin: 4px; border: 1px solid khaki"> (#200000016420)</span></p><p><b>unitOfPresentation</b>: Pen <span style="background: LightGoldenRodYellow; margin: 4px; border: 1px solid khaki"> (rmswi#200000002135)</span></p><p><b>manufacturer</b>: <a href="#Organization_man-174ad598bd1faddba2098648a45613e1">See above (Organization/man-174ad598bd1faddba2098648a45613e1)</a></p></div>
        </text>
        <identifier>
          <use value="official"/>
          <system value="https://spor.ema.europa.eu/pmswi"/>
          <value value="xxx"/>
        </identifier>
        <status value="active"/>
        <manufacturedDoseForm>
          <coding>
            <system value="https://spor.ema.europa.eu/rmswi/"/>
            <code value="200000016420"/>
            <display value="Solution"/>
          </coding>
        </manufacturedDoseForm>
        <unitOfPresentation>
          <coding>
            <system value="https://spor.ema.europa.eu/rmswi"/>
            <code value="200000002135"/>
            <display value="Pen"/>
          </coding>
        </unitOfPresentation>
        <manufacturer>
          <reference value="Organization/man-174ad598bd1faddba2098648a45613e1"/>
        </manufacturer>
      </ManufacturedItemDefinition>
    </resource>
  </entry>
</Bundle>