<?xml version="1.0" encoding="UTF-8"?>

<Bundle xmlns="http://hl7.org/fhir">
  <id value="bundlepackageleaflet-es-af1953635c28668e0d454e0740fcb36f"/>
  <meta>
    <profile value="http://hl7.org/fhir/uv/emedicinal-product-info/StructureDefinition/Bundle-uv-epi"/>
  </meta>
  <language value="es"/>
  <identifier>
    <system value="https://www.gravitatehealth.eu/sid/doc"/>
    <value value="acmedrug-xx"/>
  </identifier>
  <type value="document"/>
  <timestamp value="2023-06-27T10:09:22Z"/>
  <entry>
    <fullUrl value="http://hl7.eu/fhir/ig/gravitate-health/Composition/composition-es-3b8585822d27945de47423af5de9824d"/>
    <resource>
      <Composition>
        <id value="composition-es-3b8585822d27945de47423af5de9824d"/>
        <meta>
          <profile value="http://hl7.org/fhir/uv/emedicinal-product-info/StructureDefinition/Composition-uv-epi"/>
        </meta>
        <language value="es"/>
        <text>
          <status value="generated"/><div xmlns="http://www.w3.org/1999/xhtml" xml:lang="es" lang="es"><a name="Composition_composition-es-3b8585822d27945de47423af5de9824d"> </a><p><b>Generated Narrative: Composition</b><a name="composition-es-3b8585822d27945de47423af5de9824d"> </a><a name="hccomposition-es-3b8585822d27945de47423af5de9824d"> </a></p><div style="display: inline-block; background-color: #d9e0e7; padding: 6px; margin: 4px; border: 1px solid #8da1b4; border-radius: 5px; line-height: 60%"><p style="margin-bottom: 0px">Resource Composition &quot;composition-es-3b8585822d27945de47423af5de9824d&quot;  (Language &quot;es&quot;) </p><p style="margin-bottom: 0px">Profile: <a href="https://build.fhir.org/ig/HL7/emedicinal-product-info//StructureDefinition-Composition-uv-epi.html">Composition (ePI)</a></p></div><p><b>identifier</b>: <code>https://spor.ema.europa.eu/rmswi/</code>/23d476da249cad2649e668dacd805f23</p><p><b>status</b>: final</p><p><b>type</b>: Package Leaflet <span style="background: LightGoldenRodYellow; margin: 4px; border: 1px solid khaki"> (#100000155538)</span></p><p><b>category</b>: Raw <span style="background: LightGoldenRodYellow; margin: 4px; border: 1px solid khaki"> (<a href="CodeSystem-epicategory-cs.html">Category of EPI</a>#R)</span></p><p><b>date</b>: 2022-02-16 13:28:17+0000</p><p><b>author</b>: <a href="#Organization_mah-55692ec414f31dec233d83cfa4fdb9f9">See above (Organization/mah-55692ec414f31dec233d83cfa4fdb9f9)</a></p><p><b>title</b>: TEST PURPOSES ONLY - Aquilea Articulaciones Colageno y Magnesio 375gr</p><h3>Attesters</h3><table class="grid"><tr><td style="display: none">-</td><td><b>Mode</b></td><td><b>Time</b></td></tr><tr><td style="display: none">*</td><td>Official <span style="background: LightGoldenRodYellow; margin: 4px; border: 1px solid khaki"> (<a href="http://hl7.org/fhir/R5/codesystem-composition-attestation-mode.html">Composition Attestation Mode</a>#official)</span></td><td>2022-02-16 13:28:17+0000</td></tr></table></div>
        </text>
        <identifier>
          <system value="https://spor.ema.europa.eu/rmswi/"/>
          <value value="23d476da249cad2649e668dacd805f23"/>
        </identifier>
        <status value="final"/>
        <type>
          <coding>
            <system value="https://spor.ema.europa.eu/rmswi/"/>
            <code value="100000155538"/>
          </coding>
          <text value="Package Leaflet"/>
        </type>
        <category>
          <coding>
            <system value="http://hl7.eu/fhir/ig/gravitate-health/CodeSystem/epicategory-cs"/>
            <code value="R"/>
            <display value="Raw"/>
          </coding>
        </category>
        <subject>
          <reference value="MedicinalProductDefinition/mp3b8585822d27945de47423af5de9824d"/>
        </subject>
        <date value="2022-02-16T13:28:17Z"/>
        <author>
          <reference value="Organization/mah-55692ec414f31dec233d83cfa4fdb9f9"/>
        </author>
        <title value="TEST PURPOSES ONLY - Aquilea Articulaciones Colageno y Magnesio 375gr"/>
        <attester>
          <mode>
            <coding>
              <system value="http://hl7.org/fhir/composition-attestation-mode"/>
              <code value="official"/>
            </coding>
          </mode>
          <time value="2022-02-16T13:28:17Z"/>
        </attester>
        <section>
          <title value="B. PROSPECTO"/>
          <code>
            <coding>
              <system value="https://spor.ema.europa.eu/rmswi/"/>
              <code value="100000155538"/>
            </coding>
            <text value="B. PROSPECTO"/>
          </code>
          <text>
            <status value="additional"/><div xmlns="http://www.w3.org/1999/xhtml">This product is a OTC, epi pending</div>
          </text>
          <section>
            <title value="PROSPECTO: INFORMACIÓN PARA EL USUARIO"/>
            <code>
              <coding>
                <system value="https://spor.ema.europa.eu/rmswi/"/>
                <code value="100000155538"/>
              </coding>
              <text value="PROSPECTO: INFORMACIÓN PARA EL USUARIO"/>
            </code>
            <text>
              <status value="additional"/><div xmlns="http://www.w3.org/1999/xhtml">unavailable</div>
            </text>
            <emptyReason>
              <coding>
                <system value="http://terminology.hl7.org/CodeSystem/list-empty-reason"/>
                <code value="unavailable"/>
              </coding>
            </emptyReason>
          </section>
          <section>
            <title value="Contenido del prospecto"/>
            <code>
              <coding>
                <system value="https://spor.ema.europa.eu/rmswi/"/>
                <code value="100000155538"/>
              </coding>
              <text value="Contenido del prospecto"/>
            </code>
            <text>
              <status value="additional"/><div xmlns="http://www.w3.org/1999/xhtml">Lorem ipsum dolor sit amet, consectetur adipiscing elit. Sed aliquam eros sollicitudin erat pellentesque semper. In tincidunt hendrerit scelerisque. Donec a venenatis eros, a dignissim augue. Nullam rhoncus pulvinar risus eu auctor. Proin non dui est. Pellentesque eleifend, est ac eleifend feugiat, nulla nibh vestibulum mi, ut hendrerit erat nunc volutpat tortor. Aenean dignissim orci ac pretium egestas. Phasellus vel fringilla velit. Nunc sed augue egestas, accumsan justo quis, malesuada massa. Donec nisl sem, fermentum ac lacus vel, ornare eleifend turpis. Curabitur ut feugiat neque, at faucibus ligula. Suspendisse in tristique sem. Aenean posuere, justo vitae vulputate elementum, mi risus sodales lectus, vitae laoreet sem lacus sit amet nisi. Phasellus porta nunc sed tortor ultricies, non sagittis quam venenatis. Nulla sit amet augue odio.</div>
            </text>
          </section>
          <section>
            <title value="1. Qué es Aquilea y para qué se utiliza"/>
            <code>
              <coding>
                <system value="https://spor.ema.europa.eu/rmswi/"/>
                <code value="100000155538"/>
              </coding>
              <text value="1. Qué es Aquilea y para qué se utiliza"/>
            </code>
            <text>
              <status value="additional"/><div xmlns="http://www.w3.org/1999/xhtml">Quisque posuere elit nec auctor imperdiet. Morbi id tortor nec odio molestie maximus. Phasellus id placerat velit. In ex enim, ultricies at maximus sit amet, luctus sit amet magna. Quisque in laoreet ligula, venenatis ultricies lectus. Quisque eleifend felis sed nulla consequat, eu tincidunt nisi gravida. Duis et lacinia ex. Aliquam pharetra vel metus at scelerisque. Integer ultricies dolor vestibulum nibh lacinia mollis. Ut tempor congue nulla eget molestie.</div>
            </text>
          </section>
          <section>
            <title value="2. Qué necesita saber antes de empezar a tomar Aquilea"/>
            <code>
              <coding>
                <system value="https://spor.ema.europa.eu/rmswi/"/>
                <code value="100000155538"/>
              </coding>
              <text value="2. Qué necesita saber antes de empezar a tomar Aquilea"/>
            </code>
            <text>
              <status value="additional"/><div xmlns="http://www.w3.org/1999/xhtml">Nunc velit ante, aliquet sed commodo ut, dictum eget lectus. Duis eu nulla ac dui pellentesque sodales. Curabitur pellentesque dolor metus, ut mollis est posuere sit amet. Praesent sagittis ligula vel est auctor congue. Duis varius ligula et faucibus porttitor. Ut placerat aliquet turpis, eget condimentum nibh porttitor ut. Morbi libero nisl, ullamcorper sit amet est a, dignissim rhoncus ante. Fusce suscipit enim et scelerisque vehicula. Suspendisse eu nulla porta, pharetra dolor et, blandit eros. Ut iaculis metus id purus scelerisque dignissim. Vivamus convallis placerat ex sit amet gravida. Nullam sed orci elit. Pellentesque tincidunt odio lacus, sit amet facilisis quam aliquam id.</div>
            </text>
          </section>
          <section>
            <title value="3. Cómo tomar Aquilea"/>
            <code>
              <coding>
                <system value="https://spor.ema.europa.eu/rmswi/"/>
                <code value="100000155538"/>
              </coding>
              <text value="3. Cómo tomar Aquilea"/>
            </code>
            <text>
              <status value="additional"/><div xmlns="http://www.w3.org/1999/xhtml">Fusce euismod justo eget sem dignissim convallis. Nulla a massa quis leo consectetur pulvinar. Sed aliquam nisl vel purus porta, id lobortis risus ultrices. Etiam quam elit, blandit vitae sem vel, rutrum fermentum velit. Integer congue libero eget bibendum dignissim. Suspendisse a cursus dui. Phasellus a venenatis dui. Sed luctus volutpat diam at consequat. Aliquam erat volutpat.</div>
            </text>
          </section>
          <section>
            <title value="4. Posibles efectos adversos"/>
            <code>
              <coding>
                <system value="https://spor.ema.europa.eu/rmswi/"/>
                <code value="100000155538"/>
              </coding>
              <text value="4. Posibles efectos adversos"/>
            </code>
            <text>
              <status value="additional"/><div xmlns="http://www.w3.org/1999/xhtml">Phasellus sed viverra lacus. Quisque iaculis massa gravida purus mattis consectetur. Praesent vestibulum porta iaculis. Nam semper massa vel interdum gravida. Donec vitae imperdiet enim, a lobortis ante. Class aptent taciti sociosqu ad litora torquent per conubia nostra, per inceptos himenaeos. Praesent sed metus ante. Aliquam ut libero mi. Pellentesque sit amet mi tempus dui euismod porta. Morbi interdum, magna vel convallis fringilla, neque ipsum tincidunt metus, quis semper elit dolor non orci. Ut sed tellus id mauris accumsan accumsan dictum ut nulla. Donec placerat lorem in enim rhoncus, vitae facilisis purus suscipit. Praesent quis diam nunc. Aenean in est luctus, hendrerit quam at, facilisis tellus. Sed efficitur lectus in libero lacinia tempus.</div>
            </text>
          </section>
          <section>
            <title value="5. CONSERVACIÓN DE Aquilea"/>
            <code>
              <coding>
                <system value="https://spor.ema.europa.eu/rmswi/"/>
                <code value="100000155538"/>
              </coding>
              <text value="5. CONSERVACIÓN DE Aquilea"/>
            </code>
            <text>
              <status value="additional"/><div xmlns="http://www.w3.org/1999/xhtml">Morbi egestas, sem id feugiat molestie, nisi libero faucibus urna, vel fermentum metus neque sit amet tellus. Nulla id dui tempor, suscipit augue eget, malesuada quam. Duis a lacinia leo, non finibus lectus. Vivamus at finibus odio. Nullam congue hendrerit cursus. Nunc sed dolor varius, aliquet lacus ut, ornare dolor. Donec condimentum dictum ultrices.</div>
            </text>
          </section>
          <section>
            <title value="6. Contenido del envase e información adicional"/>
            <code>
              <coding>
                <system value="https://spor.ema.europa.eu/rmswi/"/>
                <code value="100000155538"/>
              </coding>
              <text value="6. Contenido del envase e información adicional"/>
            </code>
            <text>
              <status value="additional"/><div xmlns="http://www.w3.org/1999/xhtml">Sed posuere ipsum quis lobortis feugiat. Nullam mauris ipsum, iaculis vitae ex quis, volutpat ornare lorem. Etiam feugiat bibendum nisi, eget ultricies mauris lobortis eget. Nulla consectetur lacus congue elit volutpat, volutpat laoreet augue commodo. Praesent congue diam et massa placerat tincidunt. Vivamus egestas est eget velit efficitur fermentum. Vestibulum id metus in nibh condimentum sagittis non convallis augue. Phasellus tortor eros, vehicula pharetra tellus sagittis, pretium sagittis elit. In vulputate arcu lectus, nec tristique orci luctus vitae. Quisque imperdiet tristique justo, eget faucibus elit aliquam et. Vestibulum ante ipsum primis in faucibus orci luctus et ultrices posuere cubilia curae; Phasellus et luctus purus. Curabitur porta scelerisque ex. Duis non libero at quam fringilla volutpat sed ornare neque. Donec vel tellus non neque efficitur efficitur.</div>
            </text>
          </section>
        </section>
      </Composition>
    </resource>
  </entry>
  <entry>
    <fullUrl value="http://hl7.eu/fhir/ig/gravitate-health/Ingredient/ingredient-for-aquilea-magnesium"/>
    <resource>
      <Ingredient>
        <id value="ingredient-for-aquilea-magnesium"/>
        <meta>
          <profile value="http://hl7.org/fhir/uv/emedicinal-product-info/StructureDefinition/Ingredient-uv-epi"/>
        </meta>
        <text>
          <status value="generated"/><div xmlns="http://www.w3.org/1999/xhtml"><a name="Ingredient_ingredient-for-aquilea-magnesium"> </a><p><b>Generated Narrative: Ingredient</b><a name="ingredient-for-aquilea-magnesium"> </a><a name="hcingredient-for-aquilea-magnesium"> </a></p><div style="display: inline-block; background-color: #d9e0e7; padding: 6px; margin: 4px; border: 1px solid #8da1b4; border-radius: 5px; line-height: 60%"><p style="margin-bottom: 0px">Resource Ingredient &quot;ingredient-for-aquilea-magnesium&quot; </p><p style="margin-bottom: 0px">Profile: <a href="https://build.fhir.org/ig/HL7/emedicinal-product-info//StructureDefinition-Ingredient-uv-epi.html">Ingredient (ePI)</a></p></div><p><b>identifier</b>: <code>https://gsrs.ncats.nih.gov/ginas/app/beta</code>/I38ZP9992A (use: OFFICIAL)</p><p><b>status</b>: active</p><p><b>for</b>: </p><ul><li><a href="#ManufacturedItemDefinition_mid-af1953635c28668e0d454e0740fcb36f">See above (ManufacturedItemDefinition/mid-af1953635c28668e0d454e0740fcb36f)</a></li><li><a href="#MedicinalProductDefinition_mp3b8585822d27945de47423af5de9824d">See above (MedicinalProductDefinition/mp3b8585822d27945de47423af5de9824d)</a></li><li><a href="#AdministrableProductDefinition_ap-af1953635c28668e0d454e0740fcb36f">See above (AdministrableProductDefinition/ap-af1953635c28668e0d454e0740fcb36f)</a></li></ul><p><b>role</b>: Active <span style="background: LightGoldenRodYellow; margin: 4px; border: 1px solid khaki"> (rmswi#100000072072)</span></p><blockquote><p><b>substance</b></p><h3>Codes</h3><table class="grid"><tr><td style="display: none">-</td><td><b>Concept</b></td></tr><tr><td style="display: none">*</td><td>magnesium <span style="background: LightGoldenRodYellow; margin: 4px; border: 1px solid khaki"> (beta#I38ZP9992A)</span></td></tr></table><h3>Strengths</h3><table class="grid"><tr><td style="display: none">-</td><td><b>Basis</b></td></tr><tr><td style="display: none">*</td><td>active ingredient - basis of strength <span style="background: LightGoldenRodYellow; margin: 4px; border: 1px solid khaki"> (<a href="http://terminology.hl7.org/5.3.0/CodeSystem-v3-RoleClass.html">RoleClass</a>#ACTIB)</span></td></tr></table></blockquote></div>
        </text>
        <identifier>
          <use value="official"/>
          <system value="https://gsrs.ncats.nih.gov/ginas/app/beta"/>
          <value value="I38ZP9992A"/>
        </identifier>
        <status value="active"/>
        <for>
          <reference value="ManufacturedItemDefinition/mid-af1953635c28668e0d454e0740fcb36f"/>
        </for>
        <for>
          <reference value="MedicinalProductDefinition/mp3b8585822d27945de47423af5de9824d"/>
        </for>
        <for>
          <reference value="AdministrableProductDefinition/ap-af1953635c28668e0d454e0740fcb36f"/>
        </for>
        <role>
          <coding>
            <system value="https://spor.ema.europa.eu/rmswi"/>
            <code value="100000072072"/>
            <display value="Active"/>
          </coding>
        </role>
        <substance>
          <code>
            <concept>
              <coding>
                <system value="https://gsrs.ncats.nih.gov/ginas/app/beta"/>
                <code value="I38ZP9992A"/>
                <display value="magnesium"/>
              </coding>
            </concept>
          </code>
          <strength>
            <basis>
              <coding>
                <system value="http://terminology.hl7.org/CodeSystem/v3-RoleClass"/>
                <code value="ACTIB"/>
                <display value="active ingredient - basis of strength"/>
              </coding>
            </basis>
          </strength>
        </substance>
      </Ingredient>
    </resource>
  </entry>
  <entry>
    <fullUrl value="http://hl7.eu/fhir/ig/gravitate-health/Ingredient/ingredient-for-aquilea-humantypeicollagen"/>
    <resource>
      <Ingredient>
        <id value="ingredient-for-aquilea-humantypeicollagen"/>
        <meta>
          <profile value="http://hl7.org/fhir/uv/emedicinal-product-info/StructureDefinition/Ingredient-uv-epi"/>
        </meta>
        <text>
          <status value="generated"/><div xmlns="http://www.w3.org/1999/xhtml"><a name="Ingredient_ingredient-for-aquilea-humantypeicollagen"> </a><p><b>Generated Narrative: Ingredient</b><a name="ingredient-for-aquilea-humantypeicollagen"> </a><a name="hcingredient-for-aquilea-humantypeicollagen"> </a></p><div style="display: inline-block; background-color: #d9e0e7; padding: 6px; margin: 4px; border: 1px solid #8da1b4; border-radius: 5px; line-height: 60%"><p style="margin-bottom: 0px">Resource Ingredient &quot;ingredient-for-aquilea-humantypeicollagen&quot; </p><p style="margin-bottom: 0px">Profile: <a href="https://build.fhir.org/ig/HL7/emedicinal-product-info//StructureDefinition-Ingredient-uv-epi.html">Ingredient (ePI)</a></p></div><p><b>identifier</b>: <code>https://gsrs.ncats.nih.gov/ginas/app/beta</code>/PT3TGI7OIP (use: OFFICIAL)</p><p><b>status</b>: active</p><p><b>for</b>: </p><ul><li><a href="#ManufacturedItemDefinition_mid-af1953635c28668e0d454e0740fcb36f">See above (ManufacturedItemDefinition/mid-af1953635c28668e0d454e0740fcb36f)</a></li><li><a href="#MedicinalProductDefinition_mp3b8585822d27945de47423af5de9824d">See above (MedicinalProductDefinition/mp3b8585822d27945de47423af5de9824d)</a></li><li><a href="#AdministrableProductDefinition_ap-af1953635c28668e0d454e0740fcb36f">See above (AdministrableProductDefinition/ap-af1953635c28668e0d454e0740fcb36f)</a></li></ul><p><b>role</b>: Active <span style="background: LightGoldenRodYellow; margin: 4px; border: 1px solid khaki"> (rmswi#100000072072)</span></p><blockquote><p><b>substance</b></p><h3>Codes</h3><table class="grid"><tr><td style="display: none">-</td><td><b>Concept</b></td></tr><tr><td style="display: none">*</td><td>HUMAN TYPE I COLLAGEN <span style="background: LightGoldenRodYellow; margin: 4px; border: 1px solid khaki"> (beta#PT3TGI7OIP)</span></td></tr></table><h3>Strengths</h3><table class="grid"><tr><td style="display: none">-</td><td><b>Basis</b></td></tr><tr><td style="display: none">*</td><td>active ingredient - basis of strength <span style="background: LightGoldenRodYellow; margin: 4px; border: 1px solid khaki"> (<a href="http://terminology.hl7.org/5.3.0/CodeSystem-v3-RoleClass.html">RoleClass</a>#ACTIB)</span></td></tr></table></blockquote></div>
        </text>
        <identifier>
          <use value="official"/>
          <system value="https://gsrs.ncats.nih.gov/ginas/app/beta"/>
          <value value="PT3TGI7OIP"/>
        </identifier>
        <status value="active"/>
        <for>
          <reference value="ManufacturedItemDefinition/mid-af1953635c28668e0d454e0740fcb36f"/>
        </for>
        <for>
          <reference value="MedicinalProductDefinition/mp3b8585822d27945de47423af5de9824d"/>
        </for>
        <for>
          <reference value="AdministrableProductDefinition/ap-af1953635c28668e0d454e0740fcb36f"/>
        </for>
        <role>
          <coding>
            <system value="https://spor.ema.europa.eu/rmswi"/>
            <code value="100000072072"/>
            <display value="Active"/>
          </coding>
        </role>
        <substance>
          <code>
            <concept>
              <coding>
                <system value="https://gsrs.ncats.nih.gov/ginas/app/beta"/>
                <code value="PT3TGI7OIP"/>
                <display value="HUMAN TYPE I COLLAGEN"/>
              </coding>
            </concept>
          </code>
          <strength>
            <basis>
              <coding>
                <system value="http://terminology.hl7.org/CodeSystem/v3-RoleClass"/>
                <code value="ACTIB"/>
                <display value="active ingredient - basis of strength"/>
              </coding>
            </basis>
          </strength>
        </substance>
      </Ingredient>
    </resource>
  </entry>
  <entry>
    <fullUrl value="http://hl7.eu/fhir/ig/gravitate-health/SubstanceDefinition/substance-magnesium"/>
    <resource>
      <SubstanceDefinition>
        <id value="substance-magnesium"/>
        <meta>
          <profile value="http://hl7.org/fhir/uv/emedicinal-product-info/StructureDefinition/SubstanceDefinition-uv-epi"/>
        </meta>
        <text>
          <status value="generated"/><div xmlns="http://www.w3.org/1999/xhtml"><a name="SubstanceDefinition_substance-magnesium"> </a><p><b>Generated Narrative: SubstanceDefinition</b><a name="substance-magnesium"> </a><a name="hcsubstance-magnesium"> </a></p><div style="display: inline-block; background-color: #d9e0e7; padding: 6px; margin: 4px; border: 1px solid #8da1b4; border-radius: 5px; line-height: 60%"><p style="margin-bottom: 0px">Resource SubstanceDefinition &quot;substance-magnesium&quot; </p><p style="margin-bottom: 0px">Profile: <a href="https://build.fhir.org/ig/HL7/emedicinal-product-info//StructureDefinition-SubstanceDefinition-uv-epi.html">SubstanceDefinition (ePI)</a></p></div><p><b>identifier</b>: <code>https://gsrs.ncats.nih.gov/ginas/app/beta/</code>/I38ZP9992A (use: OFFICIAL)</p><p><b>status</b>: Active <span style="background: LightGoldenRodYellow; margin: 4px; border: 1px solid khaki"> (<a href="http://hl7.org/fhir/R5/codesystem-publication-status.html">PublicationStatus</a>#active)</span></p><p><b>manufacturer</b>: <a href="#Organization_mah-55692ec414f31dec233d83cfa4fdb9f9">See above (Organization/mah-55692ec414f31dec233d83cfa4fdb9f9)</a></p></div>
        </text>
        <identifier>
          <use value="official"/>
          <system value="https://gsrs.ncats.nih.gov/ginas/app/beta/"/>
          <value value="I38ZP9992A"/>
        </identifier>
        <status>
          <coding>
            <system value="http://hl7.org/fhir/publication-status"/>
            <code value="active"/>
          </coding>
        </status>
        <manufacturer>
          <reference value="Organization/mah-55692ec414f31dec233d83cfa4fdb9f9"/>
        </manufacturer>
      </SubstanceDefinition>
    </resource>
  </entry>
  <entry>
    <fullUrl value="http://hl7.eu/fhir/ig/gravitate-health/AdministrableProductDefinition/ap-af1953635c28668e0d454e0740fcb36f"/>
    <resource>
      <AdministrableProductDefinition>
        <id value="ap-af1953635c28668e0d454e0740fcb36f"/>
        <meta>
          <profile value="http://hl7.org/fhir/uv/emedicinal-product-info/StructureDefinition/AdministrableProductDefinition-uv-epi"/>
        </meta>
        <text>
          <status value="generated"/><div xmlns="http://www.w3.org/1999/xhtml"><a name="AdministrableProductDefinition_ap-af1953635c28668e0d454e0740fcb36f"> </a><p><b>Generated Narrative: AdministrableProductDefinition</b><a name="ap-af1953635c28668e0d454e0740fcb36f"> </a><a name="hcap-af1953635c28668e0d454e0740fcb36f"> </a></p><div style="display: inline-block; background-color: #d9e0e7; padding: 6px; margin: 4px; border: 1px solid #8da1b4; border-radius: 5px; line-height: 60%"><p style="margin-bottom: 0px">Resource AdministrableProductDefinition &quot;ap-af1953635c28668e0d454e0740fcb36f&quot; </p><p style="margin-bottom: 0px">Profile: <a href="https://build.fhir.org/ig/HL7/emedicinal-product-info//StructureDefinition-AdministrableProductDefinition-uv-epi.html">AdministrableProductDefinition (ePI)</a></p></div><p><b>identifier</b>: <code>https://spor.ema.europa.eu/pmswi</code>/id</p><p><b>status</b>: active</p><p><b>formOf</b>: <a href="#MedicinalProductDefinition_mp3b8585822d27945de47423af5de9824d">See above (MedicinalProductDefinition/mp3b8585822d27945de47423af5de9824d)</a></p><p><b>administrableDoseForm</b>: Tablet <span style="background: LightGoldenRodYellow; margin: 4px; border: 1px solid khaki"> (rmswi#100000073664)</span></p><p><b>unitOfPresentation</b>: Tablet <span style="background: LightGoldenRodYellow; margin: 4px; border: 1px solid khaki"> (rmswi#200000002152)</span></p><p><b>producedFrom</b>: <a href="#ManufacturedItemDefinition_mid-af1953635c28668e0d454e0740fcb36f">See above (ManufacturedItemDefinition/mid-af1953635c28668e0d454e0740fcb36f)</a></p><blockquote><p><b>routeOfAdministration</b></p><p><b>code</b>: Oral use <span style="background: LightGoldenRodYellow; margin: 4px; border: 1px solid khaki"> (rmswi#100000073619)</span></p><h3>TargetSpecies</h3><table class="grid"><tr><td style="display: none">-</td><td><b>Code</b></td></tr><tr><td style="display: none">*</td><td>Human <span style="background: LightGoldenRodYellow; margin: 4px; border: 1px solid khaki"> (rmswi#100000109093)</span></td></tr></table></blockquote></div>
        </text>
        <identifier>
          <system value="https://spor.ema.europa.eu/pmswi"/>
          <value value="id"/>
        </identifier>
        <status value="active"/>
        <formOf>
          <reference value="MedicinalProductDefinition/mp3b8585822d27945de47423af5de9824d"/>
        </formOf>
        <administrableDoseForm>
          <coding>
            <system value="https://spor.ema.europa.eu/rmswi"/>
            <code value="100000073664"/>
            <display value="Tablet"/>
          </coding>
        </administrableDoseForm>
        <unitOfPresentation>
          <coding>
            <system value="https://spor.ema.europa.eu/rmswi"/>
            <code value="200000002152"/>
            <display value="Tablet"/>
          </coding>
        </unitOfPresentation>
        <producedFrom>
          <reference value="ManufacturedItemDefinition/mid-af1953635c28668e0d454e0740fcb36f"/>
        </producedFrom>
        <routeOfAdministration>
          <code>
            <coding>
              <system value="https://spor.ema.europa.eu/rmswi"/>
              <code value="100000073619"/>
              <display value="Oral use"/>
            </coding>
          </code>
          <targetSpecies>
            <code>
              <coding>
                <system value="https://spor.ema.europa.eu/rmswi"/>
                <code value="100000109093"/>
                <display value="Human"/>
              </coding>
            </code>
          </targetSpecies>
        </routeOfAdministration>
      </AdministrableProductDefinition>
    </resource>
  </entry>
  <entry>
    <fullUrl value="http://hl7.eu/fhir/ig/gravitate-health/RegulatedAuthorization/authorizationaf1953635c28668e0d454e0740fcb36f0"/>
    <resource>
      <RegulatedAuthorization>
        <id value="authorizationaf1953635c28668e0d454e0740fcb36f0"/>
        <meta>
          <profile value="http://hl7.org/fhir/uv/emedicinal-product-info/StructureDefinition/RegulatedAuthorization-uv-epi"/>
        </meta>
        <text>
          <status value="generated"/><div xmlns="http://www.w3.org/1999/xhtml"><a name="RegulatedAuthorization_authorizationaf1953635c28668e0d454e0740fcb36f0"> </a><p><b>Generated Narrative: RegulatedAuthorization</b><a name="authorizationaf1953635c28668e0d454e0740fcb36f0"> </a><a name="hcauthorizationaf1953635c28668e0d454e0740fcb36f0"> </a></p><div style="display: inline-block; background-color: #d9e0e7; padding: 6px; margin: 4px; border: 1px solid #8da1b4; border-radius: 5px; line-height: 60%"><p style="margin-bottom: 0px">Resource RegulatedAuthorization &quot;authorizationaf1953635c28668e0d454e0740fcb36f0&quot; </p><p style="margin-bottom: 0px">Profile: <a href="https://build.fhir.org/ig/HL7/emedicinal-product-info//StructureDefinition-RegulatedAuthorization-uv-epi.html">RegulatedAuthorization (ePI)</a></p></div><p><b>identifier</b>: <code>https://spor.ema.europa.eu/pmswi</code>/aquilea-1 (use: OFFICIAL)</p><p><b>subject</b>: <a href="#MedicinalProductDefinition_mp3b8585822d27945de47423af5de9824d">See above (MedicinalProductDefinition/mp3b8585822d27945de47423af5de9824d)</a></p><p><b>type</b>: Marketing Authorisation <span style="background: LightGoldenRodYellow; margin: 4px; border: 1px solid khaki"> (rmswi#220000000061)</span></p><p><b>status</b>: Active <span style="background: LightGoldenRodYellow; margin: 4px; border: 1px solid khaki"> (<a href="http://hl7.org/fhir/R5/codesystem-publication-status.html">PublicationStatus</a>#active)</span></p><p><b>statusDate</b>: 2015-02-07 13:28:17+0000</p><p><b>holder</b>: <a href="#Organization_mah-55692ec414f31dec233d83cfa4fdb9f9">See above (Organization/mah-55692ec414f31dec233d83cfa4fdb9f9)</a></p></div>
        </text>
        <identifier>
          <use value="official"/>
          <system value="https://spor.ema.europa.eu/pmswi"/>
          <value value="aquilea-1"/>
        </identifier>
        <subject>
          <reference value="MedicinalProductDefinition/mp3b8585822d27945de47423af5de9824d"/>
        </subject>
        <type>
          <coding>
            <system value="https://spor.ema.europa.eu/rmswi"/>
            <code value="220000000061"/>
            <display value="Marketing Authorisation"/>
          </coding>
        </type>
        <status>
          <coding>
            <system value="http://hl7.org/fhir/publication-status"/>
            <code value="active"/>
            <display value="Active"/>
          </coding>
        </status>
        <statusDate value="2015-02-07T13:28:17Z"/>
        <holder>
          <reference value="Organization/mah-55692ec414f31dec233d83cfa4fdb9f9"/>
        </holder>
      </RegulatedAuthorization>
    </resource>
  </entry>
  <entry>
    <fullUrl value="http://hl7.eu/fhir/ig/gravitate-health/Organization/mah-55692ec414f31dec233d83cfa4fdb9f9"/>
    <resource>
      <Organization>
        <id value="mah-55692ec414f31dec233d83cfa4fdb9f9"/>
        <meta>
          <profile value="http://hl7.org/fhir/uv/emedicinal-product-info/StructureDefinition/Organization-uv-epi"/>
        </meta>
        <text>
          <status value="generated"/><div xmlns="http://www.w3.org/1999/xhtml"><a name="Organization_mah-55692ec414f31dec233d83cfa4fdb9f9"> </a><p><b>Generated Narrative: Organization</b><a name="mah-55692ec414f31dec233d83cfa4fdb9f9"> </a><a name="hcmah-55692ec414f31dec233d83cfa4fdb9f9"> </a></p><div style="display: inline-block; background-color: #d9e0e7; padding: 6px; margin: 4px; border: 1px solid #8da1b4; border-radius: 5px; line-height: 60%"><p style="margin-bottom: 0px">Resource Organization &quot;mah-55692ec414f31dec233d83cfa4fdb9f9&quot; </p><p style="margin-bottom: 0px">Profile: <a href="https://build.fhir.org/ig/HL7/emedicinal-product-info//StructureDefinition-Organization-uv-epi.html">Organization (ePI)</a></p></div><p><b>identifier</b>: <code>https://spor.ema.europa.eu/omswi</code>/ORG-100000789 (use: OFFICIAL)</p><p><b>active</b>: true</p><p><b>type</b>: Marketing authorisation holder <span style="background: LightGoldenRodYellow; margin: 4px; border: 1px solid khaki"> (rmswi#220000000034)</span></p><p><b>name</b>: ACME industry</p><h3>Contacts</h3><table class="grid"><tr><td style="display: none">-</td><td><b>Address</b></td></tr><tr><td style="display: none">*</td><td>street x and y Paris FR(WORK)</td></tr></table></div>
        </text>
        <identifier>
          <use value="official"/>
          <system value="https://spor.ema.europa.eu/omswi"/>
          <value value="ORG-100000789"/>
        </identifier>
        <active value="true"/>
        <type>
          <coding>
            <system value="https://spor.ema.europa.eu/rmswi"/>
            <code value="220000000034"/>
            <display value="Marketing authorisation holder"/>
          </coding>
        </type>
        <name value="ACME industry"/>
        <contact>
          <address>
            <use value="work"/>
            <type value="physical"/>
            <text value="street x and y Paris FR"/>
            <line value="street x and y"/>
            <city value="Paris"/>
            <country value="FR"/>
          </address>
        </contact>
      </Organization>
    </resource>
  </entry>
  <entry>
    <fullUrl value="http://hl7.eu/fhir/ig/gravitate-health/PackagedProductDefinition/ppd-6b96042e191f6f2105954b57d9ea5780"/>
    <resource>
      <PackagedProductDefinition>
        <id value="ppd-6b96042e191f6f2105954b57d9ea5780"/>
        <meta>
          <profile value="http://hl7.org/fhir/uv/emedicinal-product-info/StructureDefinition/PackagedProductDefinition-uv-epi"/>
        </meta>
        <text>
          <status value="generated"/><div xmlns="http://www.w3.org/1999/xhtml"><a name="PackagedProductDefinition_ppd-6b96042e191f6f2105954b57d9ea5780"> </a><p><b>Generated Narrative: PackagedProductDefinition</b><a name="ppd-6b96042e191f6f2105954b57d9ea5780"> </a><a name="hcppd-6b96042e191f6f2105954b57d9ea5780"> </a></p><div style="display: inline-block; background-color: #d9e0e7; padding: 6px; margin: 4px; border: 1px solid #8da1b4; border-radius: 5px; line-height: 60%"><p style="margin-bottom: 0px">Resource PackagedProductDefinition &quot;ppd-6b96042e191f6f2105954b57d9ea5780&quot; </p><p style="margin-bottom: 0px">Profile: <a href="https://build.fhir.org/ig/HL7/emedicinal-product-info//StructureDefinition-PackagedProductDefinition-uv-epi.html">PackagedProductDefinition (ePI)</a></p></div><p><b>identifier</b>: <code>https://spor.ema.europa.eu/pmswi</code>/EU/1/97/049/001 (use: OFFICIAL)</p><p><b>name</b>: Aquilea Articulaciones Colageno y Magnesio 375gr 28</p><p><b>type</b>: Chemical Medicinal Product <span style="background: LightGoldenRodYellow; margin: 4px; border: 1px solid khaki"> (rmswi#100000155527)</span></p><p><b>packageFor</b>: <a href="#MedicinalProductDefinition_mp3b8585822d27945de47423af5de9824d">See above (MedicinalProductDefinition/mp3b8585822d27945de47423af5de9824d)</a></p><p><b>status</b>: Active <span style="background: LightGoldenRodYellow; margin: 4px; border: 1px solid khaki"> (<a href="http://hl7.org/fhir/R5/codesystem-publication-status.html">PublicationStatus</a>#active)</span></p><p><b>statusDate</b>: 2015-02-07 13:28:17+0000</p><p><b>containedItemQuantity</b>: 75 mg<span style="background: LightGoldenRodYellow"> (Details: UCUM code mg = 'mg')</span></p><blockquote><p><b>packaging</b></p><p><b>type</b>: Box <span style="background: LightGoldenRodYellow; margin: 4px; border: 1px solid khaki"> (rmswi#100000073498)</span></p><p><b>quantity</b>: 1</p><p><b>material</b>: Cardboard <span style="background: LightGoldenRodYellow; margin: 4px; border: 1px solid khaki"> (rmswi#200000003529)</span></p><blockquote><p><b>packaging</b></p><p><b>identifier</b>: <code>https://spor.ema.europa.eu/pmswi</code>/123456</p><p><b>type</b>: Blister <span style="background: LightGoldenRodYellow; margin: 4px; border: 1px solid khaki"> (rmswi#100000073496)</span></p><p><b>quantity</b>: 28</p><p><b>material</b>: PolyVinyl Chloride <span style="background: LightGoldenRodYellow; margin: 4px; border: 1px solid khaki"> (rmswi#200000003222)</span></p><blockquote><p><b>containedItem</b></p></blockquote></blockquote></blockquote></div>
        </text>
        <identifier>
          <use value="official"/>
          <system value="https://spor.ema.europa.eu/pmswi"/>
          <value value="EU/1/97/049/001"/>
        </identifier>
        <name value="Aquilea Articulaciones Colageno y Magnesio 375gr 28"/>
        <type>
          <coding>
            <system value="https://spor.ema.europa.eu/rmswi"/>
            <code value="100000155527"/>
            <display value="Chemical Medicinal Product"/>
          </coding>
        </type>
        <packageFor>
          <reference value="MedicinalProductDefinition/mp3b8585822d27945de47423af5de9824d"/>
        </packageFor>
        <status>
          <coding>
            <system value="http://hl7.org/fhir/publication-status"/>
            <code value="active"/>
            <display value="Active"/>
          </coding>
        </status>
        <statusDate value="2015-02-07T13:28:17Z"/>
        <containedItemQuantity>
          <value value="75"/>
          <system value="http://unitsofmeasure.org"/>
          <code value="mg"/>
        </containedItemQuantity>
        <packaging>
          <type>
            <coding>
              <system value="https://spor.ema.europa.eu/rmswi"/>
              <code value="100000073498"/>
              <display value="Box"/>
            </coding>
          </type>
          <quantity value="1"/>
          <material>
            <coding>
              <system value="https://spor.ema.europa.eu/rmswi"/>
              <code value="200000003529"/>
              <display value="Cardboard"/>
            </coding>
          </material>
          <packaging>
            <identifier>
              <system value="https://spor.ema.europa.eu/pmswi"/>
              <value value="123456"/>
            </identifier>
            <type>
              <coding>
                <system value="https://spor.ema.europa.eu/rmswi"/>
                <code value="100000073496"/>
                <display value="Blister"/>
              </coding>
            </type>
            <quantity value="28"/>
            <material>
              <coding>
                <system value="https://spor.ema.europa.eu/rmswi"/>
                <code value="200000003222"/>
                <display value="PolyVinyl Chloride"/>
              </coding>
            </material>
            <containedItem>
              <item>
                <reference>
                  <reference value="ManufacturedItemDefinition/mid-af1953635c28668e0d454e0740fcb36f"/>
                </reference>
              </item>
            </containedItem>
          </packaging>
        </packaging>
      </PackagedProductDefinition>
    </resource>
  </entry>
  <entry>
    <fullUrl value="http://hl7.eu/fhir/ig/gravitate-health/MedicinalProductDefinition/mp3b8585822d27945de47423af5de9824d"/>
    <resource>
      <MedicinalProductDefinition>
        <id value="mp3b8585822d27945de47423af5de9824d"/>
        <meta>
          <profile value="http://hl7.org/fhir/uv/emedicinal-product-info/StructureDefinition/MedicinalProductDefinition-uv-epi"/>
        </meta>
        <text>
          <status value="generated"/><div xmlns="http://www.w3.org/1999/xhtml"><a name="MedicinalProductDefinition_mp3b8585822d27945de47423af5de9824d"> </a><p><b>Generated Narrative: MedicinalProductDefinition</b><a name="mp3b8585822d27945de47423af5de9824d"> </a><a name="hcmp3b8585822d27945de47423af5de9824d"> </a></p><div style="display: inline-block; background-color: #d9e0e7; padding: 6px; margin: 4px; border: 1px solid #8da1b4; border-radius: 5px; line-height: 60%"><p style="margin-bottom: 0px">Resource MedicinalProductDefinition &quot;mp3b8585822d27945de47423af5de9824d&quot; </p><p style="margin-bottom: 0px">Profile: <a href="https://build.fhir.org/ig/HL7/emedicinal-product-info//StructureDefinition-MedicinalProductDefinition-uv-epi.html">MedicinalProductDefinition (ePI)</a></p></div><p><b>identifier</b>: <code>https://spor.ema.europa.eu/pmswi</code>/0xb9846396e9e1eedc4a344e7b64d57107</p><p><b>type</b>: Medicinal Product <span style="background: LightGoldenRodYellow; margin: 4px; border: 1px solid khaki"> (<a href="http://hl7.org/fhir/R5/codesystem-medicinal-product-type.html">Medicinal Product Type</a>#MedicinalProduct)</span></p><p><b>domain</b>: Human use <span style="background: LightGoldenRodYellow; margin: 4px; border: 1px solid khaki"> (<a href="http://hl7.org/fhir/R5/codesystem-medicinal-product-domain.html">Medicinal Product Domain</a>#Human)</span></p><p><b>status</b>: active <span style="background: LightGoldenRodYellow; margin: 4px; border: 1px solid khaki"> (<a href="http://hl7.org/fhir/R5/codesystem-publication-status.html">PublicationStatus</a>#active)</span></p><p><b>legalStatusOfSupply</b>: Medicinal product subject to medical prescription <span style="background: LightGoldenRodYellow; margin: 4px; border: 1px solid khaki"> (rmswi#100000072084)</span></p><blockquote><p><b>name</b></p><p><b>productName</b>: Aquilea Articulaciones Colageno y Magnesio 375gr</p><p><b>type</b>: Full name <span style="background: LightGoldenRodYellow; margin: 4px; border: 1px solid khaki"> (220000000000#220000000001)</span></p><blockquote><p><b>part</b></p><p><b>part</b>: Aquilea</p><p><b>type</b>: Invented name part <span style="background: LightGoldenRodYellow; margin: 4px; border: 1px solid khaki"> (220000000000#220000000002)</span></p></blockquote><blockquote><p><b>part</b></p><p><b>part</b>: Colageneo y Magnesio</p><p><b>type</b>: Scientific name part <span style="background: LightGoldenRodYellow; margin: 4px; border: 1px solid khaki"> (220000000000#220000000003)</span></p></blockquote><blockquote><p><b>part</b></p><p><b>part</b>: 375 mg</p><p><b>type</b>: Strength part <span style="background: LightGoldenRodYellow; margin: 4px; border: 1px solid khaki"> (220000000000#220000000004)</span></p></blockquote><blockquote><p><b>part</b></p><p><b>part</b>: tablet</p><p><b>type</b>: Pharmaceutical dose form part <span style="background: LightGoldenRodYellow; margin: 4px; border: 1px solid khaki"> (220000000000#220000000005)</span></p></blockquote><h3>Usages</h3><table class="grid"><tr><td style="display: none">-</td><td><b>Country</b></td><td><b>Jurisdiction</b></td><td><b>Language</b></td></tr><tr><td style="display: none">*</td><td>Spain <span style="background: LightGoldenRodYellow; margin: 4px; border: 1px solid khaki"> (<a href="http://terminology.hl7.org/5.3.0/CodeSystem-ISO3166Part1.html">ISO 3166-1 Codes for the representation of names of countries and their subdivisions — Part 1: Country code</a>#ES)</span></td><td>Spain <span style="background: LightGoldenRodYellow; margin: 4px; border: 1px solid khaki"> (<a href="http://terminology.hl7.org/5.3.0/CodeSystem-ISO3166Part1.html">ISO 3166-1 Codes for the representation of names of countries and their subdivisions — Part 1: Country code</a>#ES)</span></td><td>Spanish <span style="background: LightGoldenRodYellow; margin: 4px; border: 1px solid khaki"> (<a href="http://terminology.hl7.org/5.3.0/CodeSystem-v3-ietf3066.html">Tags for the Identification of Languages</a>#es)</span></td></tr></table></blockquote></div>
        </text>
        <identifier>
          <system value="https://spor.ema.europa.eu/pmswi"/>
          <value value="0xb9846396e9e1eedc4a344e7b64d57107"/>
        </identifier>
        <type>
          <coding>
            <system value="http://hl7.org/fhir/medicinal-product-type"/>
            <code value="MedicinalProduct"/>
            <display value="Medicinal Product"/>
          </coding>
        </type>
        <domain>
          <coding>
            <system value="http://hl7.org/fhir/medicinal-product-domain"/>
            <code value="Human"/>
            <display value="Human use"/>
          </coding>
        </domain>
        <status>
          <coding>
            <system value="http://hl7.org/fhir/publication-status"/>
            <code value="active"/>
            <display value="active"/>
          </coding>
        </status>
        <legalStatusOfSupply>
          <coding>
            <system value="https://spor.ema.europa.eu/rmswi"/>
            <code value="100000072084"/>
            <display value="Medicinal product subject to medical prescription"/>
          </coding>
        </legalStatusOfSupply>
        <name>
          <productName value="Aquilea Articulaciones Colageno y Magnesio 375gr"/>
          <type>
            <coding>
              <system value="https://spor.ema.europa.eu/lists/220000000000"/>
              <code value="220000000001"/>
              <display value="Full name"/>
            </coding>
          </type>
          <part>
            <part value="Aquilea"/>
            <type>
              <coding>
                <system value="https://spor.ema.europa.eu/lists/220000000000"/>
                <code value="220000000002"/>
                <display value="Invented name part"/>
              </coding>
            </type>
          </part>
          <part>
            <part value="Colageneo y Magnesio"/>
            <type>
              <coding>
                <system value="https://spor.ema.europa.eu/lists/220000000000"/>
                <code value="220000000003"/>
                <display value="Scientific name part"/>
              </coding>
            </type>
          </part>
          <part>
            <part value="375 mg"/>
            <type>
              <coding>
                <system value="https://spor.ema.europa.eu/lists/220000000000"/>
                <code value="220000000004"/>
                <display value="Strength part"/>
              </coding>
            </type>
          </part>
          <part>
            <part value="tablet"/>
            <type>
              <coding>
                <system value="https://spor.ema.europa.eu/lists/220000000000"/>
                <code value="220000000005"/>
                <display value="Pharmaceutical dose form part"/>
              </coding>
            </type>
          </part>
          <usage>
            <country>
              <coding>
                <system value="urn:iso:std:iso:3166"/>
                <code value="ES"/>
                <display value="Spain"/>
              </coding>
            </country>
            <jurisdiction>
              <coding>
                <system value="urn:iso:std:iso:3166"/>
                <code value="ES"/>
                <display value="Spain"/>
              </coding>
            </jurisdiction>
            <language>
              <coding>
                <system value="urn:ietf:bcp:47"/>
                <code value="es"/>
                <display value="Spanish"/>
              </coding>
            </language>
          </usage>
        </name>
      </MedicinalProductDefinition>
    </resource>
  </entry>
  <entry>
    <fullUrl value="http://hl7.eu/fhir/ig/gravitate-health/ManufacturedItemDefinition/mid-af1953635c28668e0d454e0740fcb36f"/>
    <resource>
      <ManufacturedItemDefinition>
        <id value="mid-af1953635c28668e0d454e0740fcb36f"/>
        <meta>
          <profile value="http://hl7.org/fhir/uv/emedicinal-product-info/StructureDefinition/ManufacturedItemDefinition-uv-epi"/>
        </meta>
        <text>
          <status value="generated"/><div xmlns="http://www.w3.org/1999/xhtml"><a name="ManufacturedItemDefinition_mid-af1953635c28668e0d454e0740fcb36f"> </a><p><b>Generated Narrative: ManufacturedItemDefinition</b><a name="mid-af1953635c28668e0d454e0740fcb36f"> </a><a name="hcmid-af1953635c28668e0d454e0740fcb36f"> </a></p><div style="display: inline-block; background-color: #d9e0e7; padding: 6px; margin: 4px; border: 1px solid #8da1b4; border-radius: 5px; line-height: 60%"><p style="margin-bottom: 0px">Resource ManufacturedItemDefinition &quot;mid-af1953635c28668e0d454e0740fcb36f&quot; </p><p style="margin-bottom: 0px">Profile: <a href="https://build.fhir.org/ig/HL7/emedicinal-product-info//StructureDefinition-ManufacturedItemDefinition-uv-epi.html">ManufacturedItemDefinition (ePI)</a></p></div><p><b>identifier</b>: <code>https://spor.ema.europa.eu/pmswi</code>/EU/1/96/007/035 (use: OFFICIAL)</p><p><b>status</b>: active</p><p><b>manufacturedDoseForm</b>: Aerosol <span style="background: LightGoldenRodYellow; margin: 4px; border: 1px solid khaki"> (#100000143522)</span></p><p><b>unitOfPresentation</b>: Bead <span style="background: LightGoldenRodYellow; margin: 4px; border: 1px solid khaki"> (rmswi#200000022797)</span></p></div>
        </text>
        <identifier>
          <use value="official"/>
          <system value="https://spor.ema.europa.eu/pmswi"/>
          <value value="EU/1/96/007/035"/>
        </identifier>
        <status value="active"/>
        <manufacturedDoseForm>
          <coding>
            <system value="https://spor.ema.europa.eu/rmswi/"/>
            <code value="100000143522"/>
            <display value="Aerosol"/>
          </coding>
        </manufacturedDoseForm>
        <unitOfPresentation>
          <coding>
            <system value="https://spor.ema.europa.eu/rmswi"/>
            <code value="200000022797"/>
            <display value="Bead"/>
          </coding>
        </unitOfPresentation>
      </ManufacturedItemDefinition>
    </resource>
  </entry>
</Bundle>