<?xml version="1.0" encoding="UTF-8"?>

<Bundle xmlns="http://hl7.org/fhir">
  <id value="processedbundledovato-es"/>
  <meta>
    <profile value="http://hl7.org/fhir/uv/emedicinal-product-info/StructureDefinition/Bundle-uv-epi"/>
  </meta>
  <language value="es"/>
  <identifier>
    <system value="https://www.gravitatehealth.eu/sid/doc"/>
    <value value="P/EU/1/19/1370/001"/>
  </identifier>
  <type value="document"/>
  <timestamp value="2023-04-25T11:55:27Z"/>
  <entry>
    <fullUrl value="http://hl7.eu/fhir/ig/gravitate-health/Composition/compositione722f6782d3f34f86982e14386c8811dll"/>
    <resource>
      <Composition>
        <id value="compositione722f6782d3f34f86982e14386c8811dll"/>
        <meta>
          <profile value="http://hl7.org/fhir/uv/emedicinal-product-info/StructureDefinition/Composition-uv-epi"/>
        </meta>
        <language value="es"/>
        <text>
          <status value="extensions"/><div xmlns="http://www.w3.org/1999/xhtml" xml:lang="es" lang="es"><a name="Composition_compositione722f6782d3f34f86982e14386c8811dll"> </a><p><b>Generated Narrative: Composition</b><a name="compositione722f6782d3f34f86982e14386c8811dll"> </a><a name="hccompositione722f6782d3f34f86982e14386c8811dll"> </a></p><div style="display: inline-block; background-color: #d9e0e7; padding: 6px; margin: 4px; border: 1px solid #8da1b4; border-radius: 5px; line-height: 60%"><p style="margin-bottom: 0px">Resource Composition &quot;compositione722f6782d3f34f86982e14386c8811dll&quot;  (Language &quot;es&quot;) </p><p style="margin-bottom: 0px">Profile: <a href="https://build.fhir.org/ig/HL7/emedicinal-product-info//StructureDefinition-Composition-uv-epi.html">Composition (ePI)</a></p></div><blockquote><p><b>HtmlElementLink</b></p><blockquote><p><b>url</b></p><code>elementClass</code></blockquote><p><b>value</b>: pregnancyCategory</p><blockquote><p><b>url</b></p><code>concept</code></blockquote><p><b>value</b>: Pregnancy <span style="background: LightGoldenRodYellow; margin: 4px; border: 1px solid khaki"> (<a href="https://browser.ihtsdotools.org/">SNOMED CT</a>#77386006)</span></p></blockquote><blockquote><p><b>HtmlElementLink</b></p><blockquote><p><b>url</b></p><code>elementClass</code></blockquote><p><b>value</b>: indication</p><blockquote><p><b>url</b></p><code>concept</code></blockquote><p><b>value</b>: HIV-infection/AIDS <span style="background: LightGoldenRodYellow; margin: 4px; border: 1px solid khaki"> (#B90)</span></p></blockquote><blockquote><p><b>HtmlElementLink</b></p><blockquote><p><b>url</b></p><code>elementClass</code></blockquote><p><b>value</b>: breastfeedingCategory</p><blockquote><p><b>url</b></p><code>concept</code></blockquote><p><b>value</b>: Normal breast feeding (finding) <span style="background: LightGoldenRodYellow; margin: 4px; border: 1px solid khaki"> (<a href="https://browser.ihtsdotools.org/">SNOMED CT</a>#69840006)</span></p></blockquote><blockquote><p><b>HtmlElementLink</b></p><blockquote><p><b>url</b></p><code>elementClass</code></blockquote><p><b>value</b>: liver</p><blockquote><p><b>url</b></p><code>concept</code></blockquote><p><b>value</b>: Liver disease, other <span style="background: LightGoldenRodYellow; margin: 4px; border: 1px solid khaki"> (#D97)</span></p></blockquote><blockquote><p><b>HtmlElementLink</b></p><blockquote><p><b>url</b></p><code>elementClass</code></blockquote><p><b>value</b>: contra-indication-hypericum</p><blockquote><p><b>url</b></p><code>concept</code></blockquote><p><b>value</b>: Hypericum perforatum L. <span style="background: LightGoldenRodYellow; margin: 4px; border: 1px solid khaki"> (beta#XK4IUX8MNB)</span></p></blockquote><blockquote><p><b>HtmlElementLink</b></p><blockquote><p><b>url</b></p><code>elementClass</code></blockquote><p><b>value</b>: contra-indication-calcium</p><blockquote><p><b>url</b></p><code>concept</code></blockquote><p><b>value</b>: Calcium <span style="background: LightGoldenRodYellow; margin: 4px; border: 1px solid khaki"> (beta#SY7Q814VUP)</span></p></blockquote><p><b>identifier</b>: <code>https://spor.ema.europa.eu/rmswi/</code>/yy</p><p><b>status</b>: final</p><p><b>type</b>: Package Leaflet <span style="background: LightGoldenRodYellow; margin: 4px; border: 1px solid khaki"> (#100000155538)</span></p><p><b>date</b>: 2022-04-29 13:28:17+0000</p><p><b>author</b>: <a href="#Organization_mra-7c9b97127f73ff3605a10eb1c2cc24d1">See above (Organization/mra-7c9b97127f73ff3605a10eb1c2cc24d1)</a></p><p><b>title</b>: TEST PURPOSES ONLY - Dovato 50 mg/300 mg comprimidos recubiertos con película</p><h3>Attesters</h3><table class="grid"><tr><td style="display: none">-</td><td><b>Mode</b></td><td><b>Time</b></td></tr><tr><td style="display: none">*</td><td>Official <span style="background: LightGoldenRodYellow; margin: 4px; border: 1px solid khaki"> (<a href="http://hl7.org/fhir/R5/codesystem-composition-attestation-mode.html">Composition Attestation Mode</a>#official)</span></td><td>2022-04-29 13:28:17+0000</td></tr></table></div>
        </text>
        <extension url="http://hl7.eu/fhir/ig/gravitate-health/StructureDefinition/HtmlElementLink">
          <extension url="elementClass">
            <valueString value="pregnancyCategory"/>
          </extension>
          <extension url="concept">
            <valueCodeableReference>
              <concept>
                <coding>
                  <system value="http://snomed.info/sct"/>
                  <code value="77386006"/>
                  <display value="Pregnancy"/>
                </coding>
              </concept>
            </valueCodeableReference>
          </extension>
        </extension>
        <extension url="http://hl7.eu/fhir/ig/gravitate-health/StructureDefinition/HtmlElementLink">
          <extension url="elementClass">
            <valueString value="indication"/>
          </extension>
          <extension url="concept">
            <valueCodeableReference>
              <concept>
                <coding>
                  <system value="https://icpc2.icd.com/"/>
                  <code value="B90"/>
                  <display value="HIV-infection/AIDS"/>
                </coding>
              </concept>
            </valueCodeableReference>
          </extension>
        </extension>
        <extension url="http://hl7.eu/fhir/ig/gravitate-health/StructureDefinition/HtmlElementLink">
          <extension url="elementClass">
            <valueString value="breastfeedingCategory"/>
          </extension>
          <extension url="concept">
            <valueCodeableReference>
              <concept>
                <coding>
                  <system value="http://snomed.info/sct"/>
                  <code value="69840006"/>
                  <display value="Normal breast feeding (finding)"/>
                </coding>
              </concept>
            </valueCodeableReference>
          </extension>
        </extension>
        <extension url="http://hl7.eu/fhir/ig/gravitate-health/StructureDefinition/HtmlElementLink">
          <extension url="elementClass">
            <valueString value="liver"/>
          </extension>
          <extension url="concept">
            <valueCodeableReference>
              <concept>
                <coding>
                  <system value="https://icpc2.icd.com/"/>
                  <code value="D97"/>
                  <display value="Liver disease, other"/>
                </coding>
              </concept>
            </valueCodeableReference>
          </extension>
        </extension>
        <extension url="http://hl7.eu/fhir/ig/gravitate-health/StructureDefinition/HtmlElementLink">
          <extension url="elementClass">
            <valueString value="contra-indication-hypericum"/>
          </extension>
          <extension url="concept">
            <valueCodeableReference>
              <concept>
                <coding>
                  <system value="https://gsrs.ncats.nih.gov/ginas/app/beta"/>
                  <code value="XK4IUX8MNB"/>
                  <display value="Hypericum perforatum L."/>
                </coding>
              </concept>
            </valueCodeableReference>
          </extension>
        </extension>
        <extension url="http://hl7.eu/fhir/ig/gravitate-health/StructureDefinition/HtmlElementLink">
          <extension url="elementClass">
            <valueString value="contra-indication-calcium"/>
          </extension>
          <extension url="concept">
            <valueCodeableReference>
              <concept>
                <coding>
                  <system value="https://gsrs.ncats.nih.gov/ginas/app/beta"/>
                  <code value="SY7Q814VUP"/>
                  <display value="Calcium"/>
                </coding>
              </concept>
            </valueCodeableReference>
          </extension>
        </extension>
        <identifier>
          <system value="https://spor.ema.europa.eu/rmswi/"/>
          <value value="yy"/>
        </identifier>
        <status value="final"/>
        <type>
          <coding>
            <system value="https://spor.ema.europa.eu/rmswi/"/>
            <code value="100000155538"/>
          </coding>
          <text value="Package Leaflet"/>
        </type>
        <subject>
          <reference value="MedicinalProductDefinition/mp16598f252d07b4784b82ba43cf9e847e"/>
        </subject>
        <date value="2022-04-29T13:28:17Z"/>
        <author>
          <reference value="Organization/mra-7c9b97127f73ff3605a10eb1c2cc24d1"/>
        </author>
        <title value="TEST PURPOSES ONLY - Dovato 50 mg/300 mg comprimidos recubiertos con película"/>
        <attester>
          <mode>
            <coding>
              <system value="http://hl7.org/fhir/composition-attestation-mode"/>
              <code value="official"/>
            </coding>
          </mode>
          <time value="2022-04-29T13:28:17Z"/>
        </attester>
        <section>
          <title value="B. Package Leaflet"/>
          <code>
            <coding>
              <system value="https://spor.ema.europa.eu/rmswi/"/>
              <code value="100000155538"/>
            </coding>
            <text value="B. PACKAGE LEAFLET"/>
          </code>
          <text>
            <status value="additional"/><div xmlns="http://www.w3.org/1999/xhtml">unavailable</div>
          </text>
          <emptyReason>
            <coding>
              <system value="http://terminology.hl7.org/CodeSystem/list-empty-reason"/>
              <code value="unavailable"/>
            </coding>
          </emptyReason>
          <section>
            <title value="Package leaflet: Information for the user"/>
            <code>
              <coding>
                <system value="https://spor.ema.europa.eu/rmswi/"/>
                <code value="100000155538"/>
              </coding>
              <text value="Package leaflet: Information for the user"/>
            </code>
            <text>
              <status value="additional"/><div xmlns="http://www.w3.org/1999/xhtml">Prospecto: información para el paciente Dovato 50 mg/300 mg comprimidos recubiertos con película dolutegravir/lamivudina <b>Lea todo el prospecto detenidamente antes de empezar a tomar este medicamento, porque contiene información importante para usted.</b><ul><li>Conserve este prospecto, ya que puede tener que volver a leerlo.</li><li>Si tiene alguna duda, consulte a su médico o farmacéutico.</li><li>Este medicamento se le ha recetado solamente a usted, y no debe dárselo a otras personas aunque tengan los mismos síntomas que usted, ya que puede perjudicarles.</li><li>Si experimenta efectos adversos, consulte a su médico o farmacéutico, incluso si se trata de efectos adversos que no aparecen en este prospecto. Ver sección 4.</li></ul></div>
            </text>
          </section>
          <section>
            <title value="What is in this leaflet"/>
            <code>
              <coding>
                <system value="https://spor.ema.europa.eu/rmswi/"/>
                <code value="100000155538"/>
              </coding>
              <text value="What is in this leaflet"/>
            </code>
            <text>
              <status value="additional"/><div xmlns="http://www.w3.org/1999/xhtml"><ol><li>Qué es Dovato y para qué se utiliza</li><li>Qué necesita saber antes de empezar a tomar Dovato</li><li>Cómo tomar Dovato</li><li>Posibles efectos adversos</li><li>Conservación de Dovato</li><li>Contenido del envase e información adicional</li></ol></div>
            </text>
          </section>
          <section>
            <title value="1. What Dovato 50 mg/300 mg comprimidos recubiertos con película is and what it is used for"/>
            <code>
              <coding>
                <system value="https://spor.ema.europa.eu/rmswi/"/>
                <code value="100000155538"/>
              </coding>
              <text value="1. What Dovato 50 mg/300 mg comprimidos recubiertos con película is and what it is used for"/>
            </code>
            <text>
              <status value="additional"/><div xmlns="http://www.w3.org/1999/xhtml"><div class="indication">Dovato es un medicamento que contiene dos principios activos usados para tratar la infección por el virus de la inmunodeficiencia humana (VIH): dolutegravir y lamivudina. Dolutegravir pertenece al grupo de medicamentos antirretrovirales llamados inhibidores de la integrasa (INI) y lamivudina pertenece a un grupo de medicamentos antirretrovirales denominados inhibidores de la transcriptasa inversa análogos de nucleósido (ITIAN).</div></div>
            </text>
          </section>
          <section>
            <title value="2. What you need to know before you take Dovato 50 mg/300 mg comprimidos recubiertos con película"/>
            <code>
              <coding>
                <system value="https://spor.ema.europa.eu/rmswi/"/>
                <code value="100000155538"/>
              </coding>
              <text value="2. What you need to know before you take Dovato 50 mg/300 mg comprimidos recubiertos con película"/>
            </code>
            <text>
              <status value="additional"/><div xmlns="http://www.w3.org/1999/xhtml"><p><strong>No tome Dovato</strong></p><ul><li>si es alérgico (hipersensible) a dolutegravir o lamivudina o a alguno de los demás componentes de este medicamento (incluidos en la sección 6)</li><li>si está tomando un medicamento llamado fampridina (también conocido como dalfampridina; utilizado para tratar la esclerosis múltiple).</li></ul><p>Si cree que algo de esto le aplica, consulte a su médico.</p><p><strong>Advertencias y precauciones</strong> Algunas personas que toman Dovato u otros tratamientos combinados frente al VIH tienen un mayor riesgo de desarrollar efectos adversos graves que otras. Usted necesita saber que hay un mayor riesgo:</p><ul><li><span class="liver">si tiene una enfermedad hepática moderada o grave</span></li><li>si alguna vez ha tenido una enfermedad hepática, incluyendo hepatitis B o C (si tiene hepatitis B no deje de tomar Dovato sin el consejo de su médico, ya que podría empeorar)</li><li>si tiene un problema de riñón.</li></ul><p>Consulte a su médico antes de empezar a tomar Dovato si le aplica alguna de estas condiciones. Puede necesitar pruebas adicionales, incluyendo análisis de sangre, mientras toma este medicamento. Para más información, ver sección 4.</p><p><em>Reacciones alérgicas</em></p><p>Dovato contiene dolutegravir. Dolutegravir puede producir una reacción alérgica grave conocida como reacción de hipersensibilidad. Usted necesita saber a qué signos y síntomas importantes debe estar atento mientras esté tomando Dovato.</p><p>Lea la información “Reacciones alérgicas” en la sección 4 de este prospecto.</p><p><em>Esté atento a los síntomas importantes</em></p><p>Algunas personas que toman medicamentos para la infección por el VIH desarrollan otros trastornos, que pueden ser graves. Estos incluyen:</p><ul><li>síntomas de infecciones e inflamación</li><li>dolor en las articulaciones, rigidez y problemas de huesos.</li></ul><p>Usted necesita saber a qué signos y síntomas importantes debe estar atento mientras esté tomando Dovato.</p><p>Lea la información sobre “Otros posibles efectos adversos” en la sección 4 de este prospecto.</p><p><strong>Niños</strong></p><p>Este medicamento no está indicado en niños menores de 12 años, porque no ha sido estudiado en estos pacientes.</p><p><strong>Otros medicamentos y Dovato</strong> Informe a su médico si está tomando, ha tomado recientemente o pudiera tener que tomar cualquier otro medicamento.</p><p>No tome Dovato con el siguiente medicamento:</p><ul><li>fampridina (también conocido como dalfampridina), utilizado para tratar la esclerosis múltiple.</li></ul><p>Algunos medicamentos pueden afectar al funcionamiento de Dovato o aumentar la probabilidad de sufrir efectos adversos. Dovato también puede afectar al funcionamiento de algunos otros medicamentos.</p><p>Informe a su médico si está tomando alguno de los siguientes medicamentos:</p><ul><li>metformina, para tratar la diabetes</li><li>medicamentos llamados antiácidos, para tratar la indigestión y el ardor de estómago. No tome un antiácido durante las 6 horas antes de tomar Dovato, o por lo menos 2 horas después de tomarlo (ver también sección 3, “Cómo tomar Dovato”).</li><li class="contra-indication-calcium">suplementos o multivitamínicos que contienen calcio, hierro o magnesio. Si toma Dovato con comida, puede tomar los suplementos o multivitamínicos que contengan calcio, hierro o magnesio a la vez que Dovato. Si no toma Dovato con comida, no puede tomar un suplemento o multivitamínico que contenga calcio, hierro o magnesio durante las 6 horas antes de tomar Dovato, o por lo menos 2 horas después de tomarlo (ver también sección 3, “Cómo tomar Dovato”).</li><li>emtricitabina, etravirina, efavirenz, nevirapina o tipranavir/ritonavir, para tratar la infección por el VIH medicamentos (generalmente líquidos) que contengan sorbitol y otros polialcoholes (como xilitol, manitol, lactitol o maltitol), si se toman con regularidad</li><li>cladribina, utilizada para tratar la leucemia o la esclerosis múltiple</li><li>rifampicina, para tratar la tuberculosis (TB) y otras infecciones bacterianas</li><li>fenitoína y fenobarbital, para tratar la epilepsia</li><li>oxcarbazepina y carbamazepina, para tratar la epilepsia o el trastorno bipolar</li><li class="contra-indication-hypericum">hierba de San Juan (Hypericum perforatum), un medicamento a base de plantas para tratar la depresión.</li></ul><p>Informe a su médico o farmacéutico si está tomando alguno de estos medicamentos. Su médico puede decidir ajustar su dosis o que usted necesite chequeos adicionales.</p><div class="pregnancyCategory"><p><strong>Embarazo</strong></p><p>Si está embarazada, cree que podría estar embarazada o tiene intención de quedarse embarazada:</p><p>Consulte a su médico sobre los riegos y beneficios de tomar Dovato.</p><p>Tomar Dovato en el momento de quedarse embarazada o durante las primeras seis semanas de embarazo puede aumentar el riesgo de un defecto de nacimiento, denominado defecto del tubo neural, como la espina bífida (malformación de la médula espinal).</p><p>Si existe la posibilidad de quedarse embarazada mientras está tomando Dovato:</p><p>Consulte a su médico y valore si existe la necesidad de utilizar un método anticonceptivo, como preservativos o anticonceptivos orales.</p><p>Informe a su médico de inmediato si se queda embarazada o tiene intención de quedarse embarazada. Su médico revisará su tratamiento. No interrumpa el tratamiento con Dovato sin consultar a su médico, ya que esto podría dañarles a usted y a su hijo.</p><p><strong>Lactancia</strong></p><p><strong>No se recomienda</strong> que las mujeres que conviven con el VIH den el pecho porque la infección por VIH puede transmitirse al bebé a través de la leche materna.</p><p>Una pequeña cantidad de los componentes de Dovato también pueden pasar a la leche materna.</p><p>Si está dando el pecho o piensa en dar el pecho, debe consultar con su médico lo antes posible.</p></div><p><strong>Conducción y uso de máquinas</strong> Dovato puede hacer que se sienta mareado y puede tener otros efectos adversos que reduzcan su atención.</p><p>No conduzca ni maneje maquinaria, a menos que esté seguro que no está afectado.</p></div>
            </text>
          </section>
          <section>
            <title value="3. How to take Dovato 50 mg/300 mg comprimidos recubiertos con película"/>
            <code>
              <coding>
                <system value="https://spor.ema.europa.eu/rmswi/"/>
                <code value="100000155538"/>
              </coding>
              <text value="3. How to take Dovato 50 mg/300 mg comprimidos recubiertos con película"/>
            </code>
            <text>
              <status value="additional"/><div xmlns="http://www.w3.org/1999/xhtml"><p>Siga exactamente las instrucciones de administración de este medicamento indicadas por su médico. En caso de duda, consulte de nuevo a su médico o farmacéutico.</p><ul><li>La dosis recomendada de Dovato es <b>un comprimido una vez al día.</b></li></ul><p>Trague el comprimido con un poco de líquido. Dovato se puede tomar con o sin alimentos.</p><p><strong>Uso en</strong> <strong>adolescentes</strong></p><p>Los adolescentes de entre 12 y 17 a&#241;os y que pesen por lo menos 40 kg pueden tomar la dosis de adultos de un comprimido una vez al d&#237;a.</p><p><strong>Medicamentos anti&#225;cidos</strong></p><p>Los anti&#225;cidos para tratar la indigesti&#243;n y el ardor de est&#243;mago pueden hacer que Dovato no sea absorbido por su cuerpo y hacerlo menos efectivo.</p><p>No tome un anti&#225;cido durante las 6 horas antes de tomar Dovato, o por lo menos 2 horas despu&#233;s de tomarlo.</p><p>Otros medicamentos que disminuyen la acidez, como ranitidina y omeprazol, pueden tomarse al mismo tiempo que Dovato.</p><p>Consulte con su m&#233;dico para que le aconseje sobre qu&#233; medicamentos contra la acidez puede tomar con Dovato.</p><div class="contra-indication-calcium"><p><strong>Suplementos o multivitam&#237;nicos que contienen calcio, hierro o magnesio</strong></p><p>Los suplementos o multivitam&#237;nicos que contengan calcio, hierro o magnesio pueden hacer que Dovato no sea absorbido en su cuerpo y hacerlo menos efectivo.</p><p>Si toma Dovato con comida, puede tomar los suplementos o multivitam&#237;nicos que contengan calcio, hierro o magnesio a la vez que Dovato. Si no toma Dovato con comida, no puede tomar un suplemento o multivitam&#237;nico que contenga calcio, hierro o magnesio durante las 6 horas antes de tomar Dovato, o por lo menos 2 horas despu&#233;s de tomarlo.</p><p>Consulte con su m&#233;dico para que le aconseje sobre c&#243;mo tomar suplementos o multivitam&#237;nicos que contengan calcio, hierro o magnesio con Dovato.</p></div><p><strong>Si toma m&#225;s</strong> <strong>Dovato</strong> <strong>del que debe</strong></p><p>Si excede el n&#250;mero de comprimidos de Dovato, <strong>contacte con su m&#233;dico o farmac&#233;utico para que le aconseje</strong>. Si es posible, mu&#233;streles la caja de Dovato.</p><p><strong>Si olvid&#243; tomar</strong> <strong>Dovato</strong></p><p>Si olvida una dosis, t&#243;mela tan pronto como lo recuerde. Pero si quedan menos de 4 horas para su pr&#243;xima dosis, s&#225;ltese esa dosis que olvid&#243; y tome la siguiente a la hora habitual. Luego contin&#250;e su tratamiento como antes.</p><p><strong>No tome una dosis doble</strong> para compensar las dosis olvidadas.</p><p><strong>&#160;</strong></p><p><strong>No interrumpa el tratamiento con Dovato sin la recomendaci&#243;n de su m&#233;dico</strong></p><p>Tome Dovato hasta que su m&#233;dico se lo indique. No deje de tomarlo a menos que su m&#233;dico se lo aconseje. La interrupci&#243;n del tratamiento con Dovato puede afectar a su salud y al funcionamiento futuro del tratamiento.</p><p>Si tiene cualquier otra duda sobre el uso de este medicamento, pregunte a su m&#233;dico o farmac&#233;utico.</p></div>
            </text>
          </section>
          <section>
            <title value="4. Possible side effects"/>
            <code>
              <coding>
                <system value="https://spor.ema.europa.eu/rmswi/"/>
                <code value="100000155538"/>
              </coding>
              <text value="4. Possible side effects"/>
            </code>
            <text>
              <status value="additional"/><div xmlns="http://www.w3.org/1999/xhtml"><p>Al igual que todos los medicamentos, este medicamento puede producir efectos adversos, aunque no todas las personas los sufran, <b>por lo que es muy importante que le comente a su médico cualquier cambio en su estado de salud.</b></p><p><strong>Reacciones al&#233;rgicas</strong></p><p>Dovato contiene dolutegravir. Dolutegravir puede producir una reacci&#243;n al&#233;rgica grave conocida como <em>reacci&#243;n de hipersensibilidad.</em> Esta es una reacci&#243;n poco frecuente (puede afectar hasta 1 de cada 100 personas) en personas que toman dolutegravir. Si tiene alguno de los siguientes s&#237;ntomas:</p><ul><li>erupci&#243;n cut&#225;nea</li><li>una temperatura alta (<em>fiebre</em>)</li><li>falta de energ&#237;a (<em>cansancio</em>)</li><li>hinchaz&#243;n, a veces de la cara o la boca (<em>angioedema</em>), que causa dificultad para respirar</li><li>dolores musculares o articulares.</li></ul><p><strong></strong> <strong>Acuda a un m&#233;dico inmediatamente.</strong> Su m&#233;dico puede decidir realizar pruebas hep&#225;ticas, de ri&#241;&#243;n o sangu&#237;neas y puede que le indique que deje de tomar Dovato.</p><p><strong>Efectos adversos muy frecuentes</strong></p><p>Estos pueden afectar a <strong>m&#225;s de 1 de cada 10</strong> personas:</p><ul><li>dolor de cabeza</li><li>diarrea</li><li>n&#225;useas.</li></ul><p><strong>Efectos adversos frecuentes</strong></p><p>Estos pueden afectar <strong>hasta 1 de cada 10</strong> personas:</p><ul><li>depresi&#243;n (sensaci&#243;n de tristeza profunda y falta de autoestima)</li><li>erupci&#243;n cut&#225;nea</li><li>picor (<em>prurito</em>)</li><li>v&#243;mitos</li><li>dolor o molestias en el est&#243;mago (<em>abdominal</em>)</li><li>aumento de peso</li><li>gases (<em>flatulencia</em>)</li><li>mareo</li><li>somnolencia</li><li>dificultad para conciliar el sue&#241;o (<em>insomnio</em>)</li><li>sue&#241;os anormales</li><li>falta de energ&#237;a (<em>cansancio</em>)</li><li>p&#233;rdida de cabello</li><li>ansiedad</li><li>dolor articular</li><li>dolor muscular.</li></ul><p>Los efectos adversos frecuentes que pueden aparecer en los an&#225;lisis de sangre son:</p><ul><li>aumento en el nivel de las enzimas del h&#237;gado (<em>aminotransferasas</em>)</li><li>aumento en el nivel de las enzimas producidas en los m&#250;sculos (<em>creatinfosfoquinasa</em>).</li></ul><p><strong>Efectos adversos poco frecuentes</strong></p><p>Estos pueden afectar <strong>hasta 1 de cada 100</strong> personas:</p><ul><li>inflamaci&#243;n del h&#237;gado (<em>hepatitis</em>)</li><li>intento de suicidio (especialmente en pacientes que anteriormente han tenido depresi&#243;n o problemas de salud mental)</li><li>pensamientos suicidas (especialmente en pacientes que anteriormente han tenido depresi&#243;n o problemas de salud mental)</li><li>crisis de angustia.</li></ul><p>Los efectos adversos poco frecuentes que pueden aparecer en los an&#225;lisis de sangre son:</p><ul><li>una disminuci&#243;n de las c&#233;lulas involucradas en la coagulaci&#243;n sangu&#237;nea (<em>trombocitopenia</em>)</li><li>un recuento bajo de gl&#243;bulos rojos (<em>anemia</em>) o recuento bajo de gl&#243;bulos blancos (<em>neutropenia</em>).</li></ul><p><strong>Efectos adversos raros</strong></p><p>Estos pueden afectar <strong>hasta</strong> <strong>1 de cada 1.000</strong> personas:</p><ul><li>insuficiencia hep&#225;tica (los signos pueden incluir coloraci&#243;n amarillenta de la piel y del blanco de los ojos u orina inusualmente oscura)</li><li>hinchaz&#243;n, a veces de la cara o la boca (<em>angioedema</em>), causando dificultad para respirar</li><li>inflamaci&#243;n del p&#225;ncreas (<em>pancreatitis</em>)</li><li>rotura del tejido muscular</li><li>suicidio (especialmente en pacientes que anteriormente han tenido depresi&#243;n o problemas de salud mental).</li></ul><p><strong>Informe a su m&#233;dico de inmediato</strong> si experimenta alg&#250;n problema de salud mental (consulte tambi&#233;n otros problemas de salud mental que aparecen m&#225;s arriba).</p><p>Los efectos adversos raros que pueden aparecer en los an&#225;lisis de sangre son:</p><ul><li>aumento de bilirrubina (prueba de funci&#243;n del h&#237;gado)</li><li>aumento de una enzima llamada <em>amilasa</em>.</li></ul><p><strong>Efectos adversos muy raros</strong></p><p>Estos pueden afectar <strong>hasta</strong> <strong>1 de cada 10.000</strong> personas:</p><ul><li>acidosis l&#225;ctica (exceso de &#225;cido l&#225;ctico en la sangre)</li><li>entumecimiento, sensaci&#243;n de hormigueo en la piel (pinchazos)</li><li>sensaci&#243;n de debilidad en las extremidades.</li></ul><p>Los efectos adversos muy raros que pueden aparecer en los an&#225;lisis de sangre son:</p><ul><li>un fallo de la m&#233;dula &#243;sea en producir nuevos gl&#243;bulos rojos (<em>aplasia pura de gl&#243;bulos rojos</em>).</li></ul><p><strong>Otros posibles efectos adversos</strong></p><p>Las personas que toman un tratamiento de combinaci&#243;n para el VIH pueden tener otros efectos adversos.</p><p><strong>S&#237;ntomas de infecci&#243;n e inflamaci&#243;n</strong></p><p>Las personas con infecci&#243;n por el VIH avanzada (SIDA) tienen un sistema inmunitario debilitado y es m&#225;s probable que desarrollen infecciones graves (infecciones oportunistas). Tales infecciones pueden haberse desarrollado de manera "silenciosa", no siendo detectadas por el sistema inmunitario debilitado antes de que el tratamiento se iniciara. Despu&#233;s de iniciar el tratamiento, el sistema inmunitario se vuelve m&#225;s fuerte y puede luchar contra estas infecciones, lo que puede causar s&#237;ntomas de infecci&#243;n o inflamaci&#243;n. Los s&#237;ntomas generalmente incluyen fiebre, adem&#225;s de algunos de los siguientes:</p><ul><li>dolor de cabeza</li><li>dolor de est&#243;mago</li><li>dificultad para respirar.</li></ul><p>En casos raros, como el sistema inmunitario se vuelve m&#225;s fuerte, tambi&#233;n puede atacar tejidos sanos (<em>trastornos</em> <em>autoinmunes</em><em>)</em>. Los s&#237;ntomas de los trastornos autoinmunes pueden aparecer muchos meses despu&#233;s de comenzar a tomar medicamentos para tratar la infecci&#243;n por el VIH. Los s&#237;ntomas pueden incluir:</p><ul><li>palpitaciones (latido card&#237;aco r&#225;pido o irregular) o temblor</li><li>hiperactividad (excesiva inquietud y movimiento)</li><li>debilidad que empieza en las manos y pies y que asciende hacia el tronco del cuerpo.</li></ul><p><strong>Si tiene cualquier s&#237;ntoma de infecci&#243;n</strong> o si nota cualquiera de los s&#237;ntomas anteriores:</p><p><strong>Consulte a su m&#233;dico inmediatamente</strong>. No tome otros medicamentos para la infecci&#243;n sin consultar antes con su m&#233;dico.</p><p><strong>Dolor en las articulaciones, rigidez y problemas de huesos</strong></p><p>Algunas personas en tratamiento combinado para el VIH desarrollan <em>osteonecrosis</em>. En esta afecci&#243;n, partes del tejido &#243;seo se da&#241;an permanentemente debido al menor aporte de sangre a los huesos. Las personas pueden ser m&#225;s propensas a padecer esta afecci&#243;n:</p><ul><li>si han tomado un tratamiento combinado durante un largo tiempo</li><li>si tambi&#233;n est&#225;n tomando medicamentos antiinflamatorios llamados corticosteroides</li><li>si beben alcohol</li><li>si su sistema inmunitario est&#225; muy debilitado</li><li>si tienen sobrepeso.</li></ul><p><strong>Los signos de la osteonecrosis incluyen:</strong></p><ul><li>rigidez en las articulaciones</li><li>molestias y dolores en las articulaciones (especialmente en la cadera, rodilla u hombro)</li><li>dificultad de movimiento.</li></ul><p>Si nota alguno de estos s&#237;ntomas:</p><p><strong>Informe a su m&#233;dico</strong>.</p><p><strong>Efectos en el peso, los l&#237;pidos y la glucosa en sangre:</strong></p><p>Durante el tratamiento frente al VIH puede haber un aumento en el peso y en los niveles de l&#237;pidos y glucosa en la sangre. Esto est&#225; parcialmente relacionado con la recuperaci&#243;n de la salud y el estilo de vida y, a veces, con los propios medicamentos para tratar el VIH. Su m&#233;dico evaluar&#225; estos cambios.</p></div>
            </text>
          </section>
          <section>
            <title value="5. How to store Dovato 50 mg/300 mg comprimidos recubiertos con película"/>
            <code>
              <coding>
                <system value="https://spor.ema.europa.eu/rmswi/"/>
                <code value="100000155538"/>
              </coding>
              <text value="5. How to store Dovato 50 mg/300 mg comprimidos recubiertos con película"/>
            </code>
            <text>
              <status value="additional"/><div xmlns="http://www.w3.org/1999/xhtml"><p>Mantener este medicamento fuera de la vista y del alcance de los niños</p><p>No utilice este medicamento después de la fecha de caducidad que aparece en la caja y el frasco después de CAD. La fecha de caducidad es el último día del mes que se indica.</p><p>Este medicamento no requiere ninguna condición especial de conservación.</p><p>Los medicamentos no se deben tirar por los desagües ni a la basura. Pregunte a su farmacéutico cómo deshacerse de los envases y de los medicamentos que ya no necesita. De esta forma, ayudará a proteger el medio ambiente.</p></div>
            </text>
          </section>
          <section>
            <title value="6. Contents of the pack and other information"/>
            <code>
              <coding>
                <system value="https://spor.ema.europa.eu/rmswi/"/>
                <code value="100000155538"/>
              </coding>
              <text value="6. Contents of the pack and other information"/>
            </code>
            <text>
              <status value="additional"/><div xmlns="http://www.w3.org/1999/xhtml"><b>Composición de Dovato</b><ul><li>Los principios activos son dolutegravir y lamivudina. Cada comprimido contiene dolutegravir sódico equivalente a 50 mg de dolutegravir y 300 mg de lamivudina.</li><li>Los demás componentes son celulosa microcristalina, carboximetilalmidón sódico, estearato de magnesio, manitol (E421), povidona (K29/32), fumarato estearilo de sodio, hipromelosa (E464), macrogol, dióxido de titanio (E171).</li><li>Este medicamento contiene menos de 1 mmol de sodio (23 mg) por comprimido; esto es, esencialmente “exento de sodio”.</li></ul></div>
            </text>
          </section>
        </section>
      </Composition>
    </resource>
  </entry>
  <entry>
    <fullUrl value="http://hl7.eu/fhir/ig/gravitate-health/Ingredient/ingredient-for-dovato-dolutegravirsodium"/>
    <resource>
      <Ingredient>
        <id value="ingredient-for-dovato-dolutegravirsodium"/>
        <meta>
          <profile value="http://hl7.org/fhir/uv/emedicinal-product-info/StructureDefinition/Ingredient-uv-epi"/>
        </meta>
        <text>
          <status value="generated"/><div xmlns="http://www.w3.org/1999/xhtml"><a name="Ingredient_ingredient-for-dovato-dolutegravirsodium"> </a><p><b>Generated Narrative: Ingredient</b><a name="ingredient-for-dovato-dolutegravirsodium"> </a><a name="hcingredient-for-dovato-dolutegravirsodium"> </a></p><div style="display: inline-block; background-color: #d9e0e7; padding: 6px; margin: 4px; border: 1px solid #8da1b4; border-radius: 5px; line-height: 60%"><p style="margin-bottom: 0px">Resource Ingredient &quot;ingredient-for-dovato-dolutegravirsodium&quot; </p><p style="margin-bottom: 0px">Profile: <a href="https://build.fhir.org/ig/HL7/emedicinal-product-info//StructureDefinition-Ingredient-uv-epi.html">Ingredient (ePI)</a></p></div><p><b>identifier</b>: <code>https://gsrs.ncats.nih.gov/ginas/app/beta</code>/1Q1V9V5WYQ (use: OFFICIAL)</p><p><b>status</b>: active</p><p><b>for</b>: </p><ul><li><a href="#ManufacturedItemDefinition_mid-49178f16170ee8a6bc2a4361c1748d5f">See above (ManufacturedItemDefinition/mid-49178f16170ee8a6bc2a4361c1748d5f)</a></li><li><a href="#MedicinalProductDefinition_mp16598f252d07b4784b82ba43cf9e847e">See above (MedicinalProductDefinition/mp16598f252d07b4784b82ba43cf9e847e)</a></li><li><a href="#AdministrableProductDefinition_ap-49178f16170ee8a6bc2a4361c1748d5f">See above (AdministrableProductDefinition/ap-49178f16170ee8a6bc2a4361c1748d5f)</a></li></ul><p><b>role</b>: Active <span style="background: LightGoldenRodYellow; margin: 4px; border: 1px solid khaki"> (rmswi#100000072072)</span></p><blockquote><p><b>substance</b></p><h3>Codes</h3><table class="grid"><tr><td style="display: none">-</td><td><b>Concept</b></td></tr><tr><td style="display: none">*</td><td>DOLUTEGRAVIR SODIUM <span style="background: LightGoldenRodYellow; margin: 4px; border: 1px solid khaki"> (beta#1Q1V9V5WYQ)</span></td></tr></table><h3>Strengths</h3><table class="grid"><tr><td style="display: none">-</td><td><b>Presentation[x]</b></td><td><b>Basis</b></td></tr><tr><td style="display: none">*</td><td>50 mg<span style="background: LightGoldenRodYellow"> (Details: UCUM code mg = 'mg')</span></td><td>active ingredient - basis of strength <span style="background: LightGoldenRodYellow; margin: 4px; border: 1px solid khaki"> (<a href="http://terminology.hl7.org/5.3.0/CodeSystem-v3-RoleClass.html">RoleClass</a>#ACTIB)</span></td></tr></table></blockquote></div>
        </text>
        <identifier>
          <use value="official"/>
          <system value="https://gsrs.ncats.nih.gov/ginas/app/beta"/>
          <value value="1Q1V9V5WYQ"/>
        </identifier>
        <status value="active"/>
        <for>
          <reference value="ManufacturedItemDefinition/mid-49178f16170ee8a6bc2a4361c1748d5f"/>
        </for>
        <for>
          <reference value="MedicinalProductDefinition/mp16598f252d07b4784b82ba43cf9e847e"/>
        </for>
        <for>
          <reference value="AdministrableProductDefinition/ap-49178f16170ee8a6bc2a4361c1748d5f"/>
        </for>
        <role>
          <coding>
            <system value="https://spor.ema.europa.eu/rmswi"/>
            <code value="100000072072"/>
            <display value="Active"/>
          </coding>
        </role>
        <substance>
          <code>
            <concept>
              <coding>
                <system value="https://gsrs.ncats.nih.gov/ginas/app/beta"/>
                <code value="1Q1V9V5WYQ"/>
                <display value="DOLUTEGRAVIR SODIUM"/>
              </coding>
            </concept>
          </code>
          <strength>
            <presentationQuantity>
              <value value="50"/>
              <system value="http://unitsofmeasure.org"/>
              <code value="mg"/>
            </presentationQuantity>
            <basis>
              <coding>
                <system value="http://terminology.hl7.org/CodeSystem/v3-RoleClass"/>
                <code value="ACTIB"/>
                <display value="active ingredient - basis of strength"/>
              </coding>
            </basis>
          </strength>
        </substance>
      </Ingredient>
    </resource>
  </entry>
  <entry>
    <fullUrl value="http://hl7.eu/fhir/ig/gravitate-health/Ingredient/ingredient-for-dovato-lamivudine"/>
    <resource>
      <Ingredient>
        <id value="ingredient-for-dovato-lamivudine"/>
        <meta>
          <profile value="http://hl7.org/fhir/uv/emedicinal-product-info/StructureDefinition/Ingredient-uv-epi"/>
        </meta>
        <text>
          <status value="generated"/><div xmlns="http://www.w3.org/1999/xhtml"><a name="Ingredient_ingredient-for-dovato-lamivudine"> </a><p><b>Generated Narrative: Ingredient</b><a name="ingredient-for-dovato-lamivudine"> </a><a name="hcingredient-for-dovato-lamivudine"> </a></p><div style="display: inline-block; background-color: #d9e0e7; padding: 6px; margin: 4px; border: 1px solid #8da1b4; border-radius: 5px; line-height: 60%"><p style="margin-bottom: 0px">Resource Ingredient &quot;ingredient-for-dovato-lamivudine&quot; </p><p style="margin-bottom: 0px">Profile: <a href="https://build.fhir.org/ig/HL7/emedicinal-product-info//StructureDefinition-Ingredient-uv-epi.html">Ingredient (ePI)</a></p></div><p><b>identifier</b>: <code>https://gsrs.ncats.nih.gov/ginas/app/beta</code>/2T8Q726O95 (use: OFFICIAL)</p><p><b>status</b>: active</p><p><b>for</b>: </p><ul><li><a href="#ManufacturedItemDefinition_mid-49178f16170ee8a6bc2a4361c1748d5f">See above (ManufacturedItemDefinition/mid-49178f16170ee8a6bc2a4361c1748d5f)</a></li><li><a href="#MedicinalProductDefinition_mp16598f252d07b4784b82ba43cf9e847e">See above (MedicinalProductDefinition/mp16598f252d07b4784b82ba43cf9e847e)</a></li><li><a href="#AdministrableProductDefinition_ap-49178f16170ee8a6bc2a4361c1748d5f">See above (AdministrableProductDefinition/ap-49178f16170ee8a6bc2a4361c1748d5f)</a></li></ul><p><b>role</b>: Active <span style="background: LightGoldenRodYellow; margin: 4px; border: 1px solid khaki"> (rmswi#100000072072)</span></p><blockquote><p><b>substance</b></p><h3>Codes</h3><table class="grid"><tr><td style="display: none">-</td><td><b>Concept</b></td></tr><tr><td style="display: none">*</td><td>lamivudine <span style="background: LightGoldenRodYellow; margin: 4px; border: 1px solid khaki"> (beta#2T8Q726O95)</span></td></tr></table><h3>Strengths</h3><table class="grid"><tr><td style="display: none">-</td><td><b>Presentation[x]</b></td><td><b>Basis</b></td></tr><tr><td style="display: none">*</td><td>300 mg<span style="background: LightGoldenRodYellow"> (Details: UCUM code mg = 'mg')</span></td><td>active ingredient - basis of strength <span style="background: LightGoldenRodYellow; margin: 4px; border: 1px solid khaki"> (<a href="http://terminology.hl7.org/5.3.0/CodeSystem-v3-RoleClass.html">RoleClass</a>#ACTIB)</span></td></tr></table></blockquote></div>
        </text>
        <identifier>
          <use value="official"/>
          <system value="https://gsrs.ncats.nih.gov/ginas/app/beta"/>
          <value value="2T8Q726O95"/>
        </identifier>
        <status value="active"/>
        <for>
          <reference value="ManufacturedItemDefinition/mid-49178f16170ee8a6bc2a4361c1748d5f"/>
        </for>
        <for>
          <reference value="MedicinalProductDefinition/mp16598f252d07b4784b82ba43cf9e847e"/>
        </for>
        <for>
          <reference value="AdministrableProductDefinition/ap-49178f16170ee8a6bc2a4361c1748d5f"/>
        </for>
        <role>
          <coding>
            <system value="https://spor.ema.europa.eu/rmswi"/>
            <code value="100000072072"/>
            <display value="Active"/>
          </coding>
        </role>
        <substance>
          <code>
            <concept>
              <coding>
                <system value="https://gsrs.ncats.nih.gov/ginas/app/beta"/>
                <code value="2T8Q726O95"/>
                <display value="lamivudine"/>
              </coding>
            </concept>
          </code>
          <strength>
            <presentationQuantity>
              <value value="300"/>
              <system value="http://unitsofmeasure.org"/>
              <code value="mg"/>
            </presentationQuantity>
            <basis>
              <coding>
                <system value="http://terminology.hl7.org/CodeSystem/v3-RoleClass"/>
                <code value="ACTIB"/>
                <display value="active ingredient - basis of strength"/>
              </coding>
            </basis>
          </strength>
        </substance>
      </Ingredient>
    </resource>
  </entry>
  <entry>
    <fullUrl value="http://hl7.eu/fhir/ig/gravitate-health/Ingredient/ingredient-for-dovato-microcrystallinecellulose"/>
    <resource>
      <Ingredient>
        <id value="ingredient-for-dovato-microcrystallinecellulose"/>
        <meta>
          <profile value="http://hl7.org/fhir/uv/emedicinal-product-info/StructureDefinition/Ingredient-uv-epi"/>
        </meta>
        <text>
          <status value="generated"/><div xmlns="http://www.w3.org/1999/xhtml"><a name="Ingredient_ingredient-for-dovato-microcrystallinecellulose"> </a><p><b>Generated Narrative: Ingredient</b><a name="ingredient-for-dovato-microcrystallinecellulose"> </a><a name="hcingredient-for-dovato-microcrystallinecellulose"> </a></p><div style="display: inline-block; background-color: #d9e0e7; padding: 6px; margin: 4px; border: 1px solid #8da1b4; border-radius: 5px; line-height: 60%"><p style="margin-bottom: 0px">Resource Ingredient &quot;ingredient-for-dovato-microcrystallinecellulose&quot; </p><p style="margin-bottom: 0px">Profile: <a href="https://build.fhir.org/ig/HL7/emedicinal-product-info//StructureDefinition-Ingredient-uv-epi.html">Ingredient (ePI)</a></p></div><p><b>identifier</b>: <code>https://gsrs.ncats.nih.gov/ginas/app/beta</code>/OP1R32D61U (use: OFFICIAL)</p><p><b>status</b>: active</p><p><b>for</b>: </p><ul><li><a href="#ManufacturedItemDefinition_mid-49178f16170ee8a6bc2a4361c1748d5f">See above (ManufacturedItemDefinition/mid-49178f16170ee8a6bc2a4361c1748d5f)</a></li><li><a href="#MedicinalProductDefinition_mp16598f252d07b4784b82ba43cf9e847e">See above (MedicinalProductDefinition/mp16598f252d07b4784b82ba43cf9e847e)</a></li><li><a href="#AdministrableProductDefinition_ap-49178f16170ee8a6bc2a4361c1748d5f">See above (AdministrableProductDefinition/ap-49178f16170ee8a6bc2a4361c1748d5f)</a></li></ul><p><b>role</b>: Excipient <span style="background: LightGoldenRodYellow; margin: 4px; border: 1px solid khaki"> (rmswi#100000072082)</span></p><blockquote><p><b>substance</b></p><h3>Codes</h3><table class="grid"><tr><td style="display: none">-</td><td><b>Concept</b></td></tr><tr><td style="display: none">*</td><td>microcrystalline cellulose <span style="background: LightGoldenRodYellow; margin: 4px; border: 1px solid khaki"> (beta#OP1R32D61U)</span></td></tr></table></blockquote></div>
        </text>
        <identifier>
          <use value="official"/>
          <system value="https://gsrs.ncats.nih.gov/ginas/app/beta"/>
          <value value="OP1R32D61U"/>
        </identifier>
        <status value="active"/>
        <for>
          <reference value="ManufacturedItemDefinition/mid-49178f16170ee8a6bc2a4361c1748d5f"/>
        </for>
        <for>
          <reference value="MedicinalProductDefinition/mp16598f252d07b4784b82ba43cf9e847e"/>
        </for>
        <for>
          <reference value="AdministrableProductDefinition/ap-49178f16170ee8a6bc2a4361c1748d5f"/>
        </for>
        <role>
          <coding>
            <system value="https://spor.ema.europa.eu/rmswi"/>
            <code value="100000072082"/>
            <display value="Excipient"/>
          </coding>
        </role>
        <substance>
          <code>
            <concept>
              <coding>
                <system value="https://gsrs.ncats.nih.gov/ginas/app/beta"/>
                <code value="OP1R32D61U"/>
                <display value="microcrystalline cellulose"/>
              </coding>
            </concept>
          </code>
        </substance>
      </Ingredient>
    </resource>
  </entry>
  <entry>
    <fullUrl value="http://hl7.eu/fhir/ig/gravitate-health/Ingredient/ingredient-for-dovato-sodiumstarchglycolate"/>
    <resource>
      <Ingredient>
        <id value="ingredient-for-dovato-sodiumstarchglycolate"/>
        <meta>
          <profile value="http://hl7.org/fhir/uv/emedicinal-product-info/StructureDefinition/Ingredient-uv-epi"/>
        </meta>
        <text>
          <status value="generated"/><div xmlns="http://www.w3.org/1999/xhtml"><a name="Ingredient_ingredient-for-dovato-sodiumstarchglycolate"> </a><p><b>Generated Narrative: Ingredient</b><a name="ingredient-for-dovato-sodiumstarchglycolate"> </a><a name="hcingredient-for-dovato-sodiumstarchglycolate"> </a></p><div style="display: inline-block; background-color: #d9e0e7; padding: 6px; margin: 4px; border: 1px solid #8da1b4; border-radius: 5px; line-height: 60%"><p style="margin-bottom: 0px">Resource Ingredient &quot;ingredient-for-dovato-sodiumstarchglycolate&quot; </p><p style="margin-bottom: 0px">Profile: <a href="https://build.fhir.org/ig/HL7/emedicinal-product-info//StructureDefinition-Ingredient-uv-epi.html">Ingredient (ePI)</a></p></div><p><b>identifier</b>: <code>https://gsrs.ncats.nih.gov/ginas/app/beta</code>/H8AV0SQX4D (use: OFFICIAL)</p><p><b>status</b>: active</p><p><b>for</b>: </p><ul><li><a href="#ManufacturedItemDefinition_mid-49178f16170ee8a6bc2a4361c1748d5f">See above (ManufacturedItemDefinition/mid-49178f16170ee8a6bc2a4361c1748d5f)</a></li><li><a href="#MedicinalProductDefinition_mp16598f252d07b4784b82ba43cf9e847e">See above (MedicinalProductDefinition/mp16598f252d07b4784b82ba43cf9e847e)</a></li><li><a href="#AdministrableProductDefinition_ap-49178f16170ee8a6bc2a4361c1748d5f">See above (AdministrableProductDefinition/ap-49178f16170ee8a6bc2a4361c1748d5f)</a></li></ul><p><b>role</b>: Excipient <span style="background: LightGoldenRodYellow; margin: 4px; border: 1px solid khaki"> (rmswi#100000072082)</span></p><blockquote><p><b>substance</b></p><h3>Codes</h3><table class="grid"><tr><td style="display: none">-</td><td><b>Concept</b></td></tr><tr><td style="display: none">*</td><td>sodium starch glycolate <span style="background: LightGoldenRodYellow; margin: 4px; border: 1px solid khaki"> (beta#H8AV0SQX4D)</span></td></tr></table></blockquote></div>
        </text>
        <identifier>
          <use value="official"/>
          <system value="https://gsrs.ncats.nih.gov/ginas/app/beta"/>
          <value value="H8AV0SQX4D"/>
        </identifier>
        <status value="active"/>
        <for>
          <reference value="ManufacturedItemDefinition/mid-49178f16170ee8a6bc2a4361c1748d5f"/>
        </for>
        <for>
          <reference value="MedicinalProductDefinition/mp16598f252d07b4784b82ba43cf9e847e"/>
        </for>
        <for>
          <reference value="AdministrableProductDefinition/ap-49178f16170ee8a6bc2a4361c1748d5f"/>
        </for>
        <role>
          <coding>
            <system value="https://spor.ema.europa.eu/rmswi"/>
            <code value="100000072082"/>
            <display value="Excipient"/>
          </coding>
        </role>
        <substance>
          <code>
            <concept>
              <coding>
                <system value="https://gsrs.ncats.nih.gov/ginas/app/beta"/>
                <code value="H8AV0SQX4D"/>
                <display value="sodium starch glycolate"/>
              </coding>
            </concept>
          </code>
        </substance>
      </Ingredient>
    </resource>
  </entry>
  <entry>
    <fullUrl value="http://hl7.eu/fhir/ig/gravitate-health/Ingredient/ingredient-for-dovato-magnesiumstearate"/>
    <resource>
      <Ingredient>
        <id value="ingredient-for-dovato-magnesiumstearate"/>
        <meta>
          <profile value="http://hl7.org/fhir/uv/emedicinal-product-info/StructureDefinition/Ingredient-uv-epi"/>
        </meta>
        <text>
          <status value="generated"/><div xmlns="http://www.w3.org/1999/xhtml"><a name="Ingredient_ingredient-for-dovato-magnesiumstearate"> </a><p><b>Generated Narrative: Ingredient</b><a name="ingredient-for-dovato-magnesiumstearate"> </a><a name="hcingredient-for-dovato-magnesiumstearate"> </a></p><div style="display: inline-block; background-color: #d9e0e7; padding: 6px; margin: 4px; border: 1px solid #8da1b4; border-radius: 5px; line-height: 60%"><p style="margin-bottom: 0px">Resource Ingredient &quot;ingredient-for-dovato-magnesiumstearate&quot; </p><p style="margin-bottom: 0px">Profile: <a href="https://build.fhir.org/ig/HL7/emedicinal-product-info//StructureDefinition-Ingredient-uv-epi.html">Ingredient (ePI)</a></p></div><p><b>identifier</b>: <code>https://gsrs.ncats.nih.gov/ginas/app/beta</code>/70097M6I30 (use: OFFICIAL)</p><p><b>status</b>: active</p><p><b>for</b>: </p><ul><li><a href="#ManufacturedItemDefinition_mid-49178f16170ee8a6bc2a4361c1748d5f">See above (ManufacturedItemDefinition/mid-49178f16170ee8a6bc2a4361c1748d5f)</a></li><li><a href="#MedicinalProductDefinition_mp16598f252d07b4784b82ba43cf9e847e">See above (MedicinalProductDefinition/mp16598f252d07b4784b82ba43cf9e847e)</a></li><li><a href="#AdministrableProductDefinition_ap-49178f16170ee8a6bc2a4361c1748d5f">See above (AdministrableProductDefinition/ap-49178f16170ee8a6bc2a4361c1748d5f)</a></li></ul><p><b>role</b>: Excipient <span style="background: LightGoldenRodYellow; margin: 4px; border: 1px solid khaki"> (rmswi#100000072082)</span></p><blockquote><p><b>substance</b></p><h3>Codes</h3><table class="grid"><tr><td style="display: none">-</td><td><b>Concept</b></td></tr><tr><td style="display: none">*</td><td>magnesium stearate <span style="background: LightGoldenRodYellow; margin: 4px; border: 1px solid khaki"> (beta#70097M6I30)</span></td></tr></table></blockquote></div>
        </text>
        <identifier>
          <use value="official"/>
          <system value="https://gsrs.ncats.nih.gov/ginas/app/beta"/>
          <value value="70097M6I30"/>
        </identifier>
        <status value="active"/>
        <for>
          <reference value="ManufacturedItemDefinition/mid-49178f16170ee8a6bc2a4361c1748d5f"/>
        </for>
        <for>
          <reference value="MedicinalProductDefinition/mp16598f252d07b4784b82ba43cf9e847e"/>
        </for>
        <for>
          <reference value="AdministrableProductDefinition/ap-49178f16170ee8a6bc2a4361c1748d5f"/>
        </for>
        <role>
          <coding>
            <system value="https://spor.ema.europa.eu/rmswi"/>
            <code value="100000072082"/>
            <display value="Excipient"/>
          </coding>
        </role>
        <substance>
          <code>
            <concept>
              <coding>
                <system value="https://gsrs.ncats.nih.gov/ginas/app/beta"/>
                <code value="70097M6I30"/>
                <display value="magnesium stearate"/>
              </coding>
            </concept>
          </code>
        </substance>
      </Ingredient>
    </resource>
  </entry>
  <entry>
    <fullUrl value="http://hl7.eu/fhir/ig/gravitate-health/Ingredient/ingredient-for-dovato-mannitol"/>
    <resource>
      <Ingredient>
        <id value="ingredient-for-dovato-mannitol"/>
        <meta>
          <profile value="http://hl7.org/fhir/uv/emedicinal-product-info/StructureDefinition/Ingredient-uv-epi"/>
        </meta>
        <text>
          <status value="generated"/><div xmlns="http://www.w3.org/1999/xhtml"><a name="Ingredient_ingredient-for-dovato-mannitol"> </a><p><b>Generated Narrative: Ingredient</b><a name="ingredient-for-dovato-mannitol"> </a><a name="hcingredient-for-dovato-mannitol"> </a></p><div style="display: inline-block; background-color: #d9e0e7; padding: 6px; margin: 4px; border: 1px solid #8da1b4; border-radius: 5px; line-height: 60%"><p style="margin-bottom: 0px">Resource Ingredient &quot;ingredient-for-dovato-mannitol&quot; </p><p style="margin-bottom: 0px">Profile: <a href="https://build.fhir.org/ig/HL7/emedicinal-product-info//StructureDefinition-Ingredient-uv-epi.html">Ingredient (ePI)</a></p></div><p><b>identifier</b>: <code>https://gsrs.ncats.nih.gov/ginas/app/beta</code>/3OWL53L36A (use: OFFICIAL)</p><p><b>status</b>: active</p><p><b>for</b>: </p><ul><li><a href="#ManufacturedItemDefinition_mid-49178f16170ee8a6bc2a4361c1748d5f">See above (ManufacturedItemDefinition/mid-49178f16170ee8a6bc2a4361c1748d5f)</a></li><li><a href="#MedicinalProductDefinition_mp16598f252d07b4784b82ba43cf9e847e">See above (MedicinalProductDefinition/mp16598f252d07b4784b82ba43cf9e847e)</a></li><li><a href="#AdministrableProductDefinition_ap-49178f16170ee8a6bc2a4361c1748d5f">See above (AdministrableProductDefinition/ap-49178f16170ee8a6bc2a4361c1748d5f)</a></li></ul><p><b>role</b>: Excipient <span style="background: LightGoldenRodYellow; margin: 4px; border: 1px solid khaki"> (rmswi#100000072082)</span></p><blockquote><p><b>substance</b></p><h3>Codes</h3><table class="grid"><tr><td style="display: none">-</td><td><b>Concept</b></td></tr><tr><td style="display: none">*</td><td>mannitol <span style="background: LightGoldenRodYellow; margin: 4px; border: 1px solid khaki"> (beta#3OWL53L36A)</span></td></tr></table></blockquote></div>
        </text>
        <identifier>
          <use value="official"/>
          <system value="https://gsrs.ncats.nih.gov/ginas/app/beta"/>
          <value value="3OWL53L36A"/>
        </identifier>
        <status value="active"/>
        <for>
          <reference value="ManufacturedItemDefinition/mid-49178f16170ee8a6bc2a4361c1748d5f"/>
        </for>
        <for>
          <reference value="MedicinalProductDefinition/mp16598f252d07b4784b82ba43cf9e847e"/>
        </for>
        <for>
          <reference value="AdministrableProductDefinition/ap-49178f16170ee8a6bc2a4361c1748d5f"/>
        </for>
        <role>
          <coding>
            <system value="https://spor.ema.europa.eu/rmswi"/>
            <code value="100000072082"/>
            <display value="Excipient"/>
          </coding>
        </role>
        <substance>
          <code>
            <concept>
              <coding>
                <system value="https://gsrs.ncats.nih.gov/ginas/app/beta"/>
                <code value="3OWL53L36A"/>
                <display value="mannitol"/>
              </coding>
            </concept>
          </code>
        </substance>
      </Ingredient>
    </resource>
  </entry>
  <entry>
    <fullUrl value="http://hl7.eu/fhir/ig/gravitate-health/SubstanceDefinition/substance-dolutegravirsodium"/>
    <resource>
      <SubstanceDefinition>
        <id value="substance-dolutegravirsodium"/>
        <meta>
          <profile value="http://hl7.org/fhir/uv/emedicinal-product-info/StructureDefinition/SubstanceDefinition-uv-epi"/>
        </meta>
        <text>
          <status value="generated"/><div xmlns="http://www.w3.org/1999/xhtml"><a name="SubstanceDefinition_substance-dolutegravirsodium"> </a><p><b>Generated Narrative: SubstanceDefinition</b><a name="substance-dolutegravirsodium"> </a><a name="hcsubstance-dolutegravirsodium"> </a></p><div style="display: inline-block; background-color: #d9e0e7; padding: 6px; margin: 4px; border: 1px solid #8da1b4; border-radius: 5px; line-height: 60%"><p style="margin-bottom: 0px">Resource SubstanceDefinition &quot;substance-dolutegravirsodium&quot; </p><p style="margin-bottom: 0px">Profile: <a href="https://build.fhir.org/ig/HL7/emedicinal-product-info//StructureDefinition-SubstanceDefinition-uv-epi.html">SubstanceDefinition (ePI)</a></p></div><p><b>identifier</b>: <code>https://gsrs.ncats.nih.gov/ginas/app/beta/</code>/1Q1V9V5WYQ (use: OFFICIAL)</p><p><b>version</b>: 1</p><p><b>status</b>: Active <span style="background: LightGoldenRodYellow; margin: 4px; border: 1px solid khaki"> (<a href="http://hl7.org/fhir/R5/codesystem-publication-status.html">PublicationStatus</a>#active)</span></p><p><b>manufacturer</b>: <a href="#Organization_man-173fde4cb6b1018cb7ec8ab708d3961c">See above (Organization/man-173fde4cb6b1018cb7ec8ab708d3961c)</a></p><h3>MolecularWeights</h3><table class="grid"><tr><td style="display: none">-</td><td><b>Type</b></td><td><b>Amount</b></td></tr><tr><td style="display: none">*</td><td>exact <span style="background: LightGoldenRodYellow; margin: 4px; border: 1px solid khaki"> ()</span></td><td>441.36</td></tr></table><h3>Structures</h3><table class="grid"><tr><td style="display: none">-</td><td><b>MolecularFormula</b></td></tr><tr><td style="display: none">*</td><td>C20H18F2N305.Na</td></tr></table><h3>Names</h3><table class="grid"><tr><td style="display: none">-</td><td><b>Name</b></td><td><b>Type</b></td></tr><tr><td style="display: none">*</td><td>(4R,12.ALPHA.S)-N-((2,4-DIFLUOROPHENYL)METHYL)-7-HYDROXY-4-METHYL-6,8-DIOXO-3,4,6,8,12,12.ALPHA.-HEXAHYDRO-2H-PYRIDO(1',2':4,5)PYRAZINO(2,1-.BETA.)(1,3)OXAZINE-9-CARBOXAMIDE</td><td>Chemical Name <span style="background: LightGoldenRodYellow; margin: 4px; border: 1px solid khaki"> (#x)</span></td></tr></table></div>
        </text>
        <identifier>
          <use value="official"/>
          <system value="https://gsrs.ncats.nih.gov/ginas/app/beta/"/>
          <value value="1Q1V9V5WYQ"/>
        </identifier>
        <version value="1"/>
        <status>
          <coding>
            <system value="http://hl7.org/fhir/publication-status"/>
            <code value="active"/>
          </coding>
        </status>
        <manufacturer>
          <reference value="Organization/man-173fde4cb6b1018cb7ec8ab708d3961c"/>
        </manufacturer>
        <molecularWeight>
          <type>
            <text value="exact"/>
          </type>
          <amount>
            <value value="441.36"/>
          </amount>
        </molecularWeight>
        <structure>
          <molecularFormula value="C20H18F2N305.Na"/>
        </structure>
        <name>
          <name value="(4R,12.ALPHA.S)-N-((2,4-DIFLUOROPHENYL)METHYL)-7-HYDROXY-4-METHYL-6,8-DIOXO-3,4,6,8,12,12.ALPHA.-HEXAHYDRO-2H-PYRIDO(1',2':4,5)PYRAZINO(2,1-.BETA.)(1,3)OXAZINE-9-CARBOXAMIDE"/>
          <type>
            <coding>
              <system value="https://gsrs.ncats.nih.gov/ginas/app/beta/"/>
              <code value="x"/>
              <display value="Chemical Name"/>
            </coding>
          </type>
        </name>
      </SubstanceDefinition>
    </resource>
  </entry>
  <entry>
    <fullUrl value="http://hl7.eu/fhir/ig/gravitate-health/SubstanceDefinition/substance-lamivudine"/>
    <resource>
      <SubstanceDefinition>
        <id value="substance-lamivudine"/>
        <meta>
          <profile value="http://hl7.org/fhir/uv/emedicinal-product-info/StructureDefinition/SubstanceDefinition-uv-epi"/>
        </meta>
        <text>
          <status value="generated"/><div xmlns="http://www.w3.org/1999/xhtml"><a name="SubstanceDefinition_substance-lamivudine"> </a><p><b>Generated Narrative: SubstanceDefinition</b><a name="substance-lamivudine"> </a><a name="hcsubstance-lamivudine"> </a></p><div style="display: inline-block; background-color: #d9e0e7; padding: 6px; margin: 4px; border: 1px solid #8da1b4; border-radius: 5px; line-height: 60%"><p style="margin-bottom: 0px">Resource SubstanceDefinition &quot;substance-lamivudine&quot; </p><p style="margin-bottom: 0px">Profile: <a href="https://build.fhir.org/ig/HL7/emedicinal-product-info//StructureDefinition-SubstanceDefinition-uv-epi.html">SubstanceDefinition (ePI)</a></p></div><p><b>identifier</b>: <code>https://gsrs.ncats.nih.gov/ginas/app/beta/</code>/2T8Q726O95 (use: OFFICIAL)</p><p><b>version</b>: 1</p><p><b>status</b>: Active <span style="background: LightGoldenRodYellow; margin: 4px; border: 1px solid khaki"> (<a href="http://hl7.org/fhir/R5/codesystem-publication-status.html">PublicationStatus</a>#active)</span></p><p><b>manufacturer</b>: <a href="#Organization_man-173fde4cb6b1018cb7ec8ab708d3961c">See above (Organization/man-173fde4cb6b1018cb7ec8ab708d3961c)</a></p><h3>MolecularWeights</h3><table class="grid"><tr><td style="display: none">-</td><td><b>Type</b></td><td><b>Amount</b></td></tr><tr><td style="display: none">*</td><td>exact <span style="background: LightGoldenRodYellow; margin: 4px; border: 1px solid khaki"> ()</span></td><td>229.26</td></tr></table><h3>Structures</h3><table class="grid"><tr><td style="display: none">-</td><td><b>MolecularFormula</b></td></tr><tr><td style="display: none">*</td><td>C8H11N303S</td></tr></table><h3>Names</h3><table class="grid"><tr><td style="display: none">-</td><td><b>Name</b></td><td><b>Type</b></td></tr><tr><td style="display: none">*</td><td>(-)-1-((2R,5S)-2-(HYDROXYMETHYL)-1,3-OXATHIOLAN-5-YL)CYTOSINE</td><td>Chemical Name <span style="background: LightGoldenRodYellow; margin: 4px; border: 1px solid khaki"> (#x)</span></td></tr></table></div>
        </text>
        <identifier>
          <use value="official"/>
          <system value="https://gsrs.ncats.nih.gov/ginas/app/beta/"/>
          <value value="2T8Q726O95"/>
        </identifier>
        <version value="1"/>
        <status>
          <coding>
            <system value="http://hl7.org/fhir/publication-status"/>
            <code value="active"/>
          </coding>
        </status>
        <manufacturer>
          <reference value="Organization/man-173fde4cb6b1018cb7ec8ab708d3961c"/>
        </manufacturer>
        <molecularWeight>
          <type>
            <text value="exact"/>
          </type>
          <amount>
            <value value="229.26"/>
          </amount>
        </molecularWeight>
        <structure>
          <molecularFormula value="C8H11N303S"/>
        </structure>
        <name>
          <name value="(-)-1-((2R,5S)-2-(HYDROXYMETHYL)-1,3-OXATHIOLAN-5-YL)CYTOSINE"/>
          <type>
            <coding>
              <system value="https://gsrs.ncats.nih.gov/ginas/app/beta/"/>
              <code value="x"/>
              <display value="Chemical Name"/>
            </coding>
          </type>
        </name>
      </SubstanceDefinition>
    </resource>
  </entry>
  <entry>
    <fullUrl value="http://hl7.eu/fhir/ig/gravitate-health/AdministrableProductDefinition/ap-49178f16170ee8a6bc2a4361c1748d5f"/>
    <resource>
      <AdministrableProductDefinition>
        <id value="ap-49178f16170ee8a6bc2a4361c1748d5f"/>
        <meta>
          <profile value="http://hl7.org/fhir/uv/emedicinal-product-info/StructureDefinition/AdministrableProductDefinition-uv-epi"/>
        </meta>
        <text>
          <status value="generated"/><div xmlns="http://www.w3.org/1999/xhtml"><a name="AdministrableProductDefinition_ap-49178f16170ee8a6bc2a4361c1748d5f"> </a><p><b>Generated Narrative: AdministrableProductDefinition</b><a name="ap-49178f16170ee8a6bc2a4361c1748d5f"> </a><a name="hcap-49178f16170ee8a6bc2a4361c1748d5f"> </a></p><div style="display: inline-block; background-color: #d9e0e7; padding: 6px; margin: 4px; border: 1px solid #8da1b4; border-radius: 5px; line-height: 60%"><p style="margin-bottom: 0px">Resource AdministrableProductDefinition &quot;ap-49178f16170ee8a6bc2a4361c1748d5f&quot; </p><p style="margin-bottom: 0px">Profile: <a href="https://build.fhir.org/ig/HL7/emedicinal-product-info//StructureDefinition-AdministrableProductDefinition-uv-epi.html">AdministrableProductDefinition (ePI)</a></p></div><p><b>identifier</b>: <code>https://spor.ema.europa.eu/pmswi</code>/123456</p><p><b>status</b>: active</p><p><b>formOf</b>: <a href="#MedicinalProductDefinition_mp16598f252d07b4784b82ba43cf9e847e">See above (MedicinalProductDefinition/mp16598f252d07b4784b82ba43cf9e847e)</a></p><p><b>administrableDoseForm</b>: Tablet <span style="background: LightGoldenRodYellow; margin: 4px; border: 1px solid khaki"> (rmswi#100000073664)</span></p><p><b>unitOfPresentation</b>: Tablet <span style="background: LightGoldenRodYellow; margin: 4px; border: 1px solid khaki"> (rmswi#200000002152)</span></p><p><b>producedFrom</b>: <a href="#ManufacturedItemDefinition_mid-49178f16170ee8a6bc2a4361c1748d5f">See above (ManufacturedItemDefinition/mid-49178f16170ee8a6bc2a4361c1748d5f)</a></p><blockquote><p><b>routeOfAdministration</b></p><p><b>code</b>: Oral use <span style="background: LightGoldenRodYellow; margin: 4px; border: 1px solid khaki"> (rmswi#100000073619)</span></p><h3>TargetSpecies</h3><table class="grid"><tr><td style="display: none">-</td><td><b>Code</b></td></tr><tr><td style="display: none">*</td><td>Human <span style="background: LightGoldenRodYellow; margin: 4px; border: 1px solid khaki"> (rmswi#100000109093)</span></td></tr></table></blockquote></div>
        </text>
        <identifier>
          <system value="https://spor.ema.europa.eu/pmswi"/>
          <value value="123456"/>
        </identifier>
        <status value="active"/>
        <formOf>
          <reference value="MedicinalProductDefinition/mp16598f252d07b4784b82ba43cf9e847e"/>
        </formOf>
        <administrableDoseForm>
          <coding>
            <system value="https://spor.ema.europa.eu/rmswi"/>
            <code value="100000073664"/>
            <display value="Tablet"/>
          </coding>
        </administrableDoseForm>
        <unitOfPresentation>
          <coding>
            <system value="https://spor.ema.europa.eu/rmswi"/>
            <code value="200000002152"/>
            <display value="Tablet"/>
          </coding>
        </unitOfPresentation>
        <producedFrom>
          <reference value="ManufacturedItemDefinition/mid-49178f16170ee8a6bc2a4361c1748d5f"/>
        </producedFrom>
        <routeOfAdministration>
          <code>
            <coding>
              <system value="https://spor.ema.europa.eu/rmswi"/>
              <code value="100000073619"/>
              <display value="Oral use"/>
            </coding>
          </code>
          <targetSpecies>
            <code>
              <coding>
                <system value="https://spor.ema.europa.eu/rmswi"/>
                <code value="100000109093"/>
                <display value="Human"/>
              </coding>
            </code>
          </targetSpecies>
        </routeOfAdministration>
      </AdministrableProductDefinition>
    </resource>
  </entry>
  <entry>
    <fullUrl value="http://hl7.eu/fhir/ig/gravitate-health/RegulatedAuthorization/authorization49178f16170ee8a6bc2a4361c1748d5f0"/>
    <resource>
      <RegulatedAuthorization>
        <id value="authorization49178f16170ee8a6bc2a4361c1748d5f0"/>
        <meta>
          <profile value="http://hl7.org/fhir/uv/emedicinal-product-info/StructureDefinition/RegulatedAuthorization-uv-epi"/>
        </meta>
        <text>
          <status value="generated"/><div xmlns="http://www.w3.org/1999/xhtml"><a name="RegulatedAuthorization_authorization49178f16170ee8a6bc2a4361c1748d5f0"> </a><p><b>Generated Narrative: RegulatedAuthorization</b><a name="authorization49178f16170ee8a6bc2a4361c1748d5f0"> </a><a name="hcauthorization49178f16170ee8a6bc2a4361c1748d5f0"> </a></p><div style="display: inline-block; background-color: #d9e0e7; padding: 6px; margin: 4px; border: 1px solid #8da1b4; border-radius: 5px; line-height: 60%"><p style="margin-bottom: 0px">Resource RegulatedAuthorization &quot;authorization49178f16170ee8a6bc2a4361c1748d5f0&quot; </p><p style="margin-bottom: 0px">Profile: <a href="https://build.fhir.org/ig/HL7/emedicinal-product-info//StructureDefinition-RegulatedAuthorization-uv-epi.html">RegulatedAuthorization (ePI)</a></p></div><p><b>identifier</b>: <code>https://spor.ema.europa.eu/pmswi</code>/EU/1/19/1370/001 (use: OFFICIAL)</p><p><b>subject</b>: <a href="#MedicinalProductDefinition_mp16598f252d07b4784b82ba43cf9e847e">See above (MedicinalProductDefinition/mp16598f252d07b4784b82ba43cf9e847e)</a></p><p><b>type</b>: Marketing Authorisation <span style="background: LightGoldenRodYellow; margin: 4px; border: 1px solid khaki"> (rmswi#220000000061)</span></p><p><b>status</b>: Active <span style="background: LightGoldenRodYellow; margin: 4px; border: 1px solid khaki"> (<a href="http://hl7.org/fhir/R5/codesystem-publication-status.html">PublicationStatus</a>#active)</span></p><p><b>statusDate</b>: 2019-07-01 13:28:17+0000</p><p><b>holder</b>: <a href="#Organization_mah-31ff1af739c7dcf77386a86f8dd83d29">See above (Organization/mah-31ff1af739c7dcf77386a86f8dd83d29)</a></p><p><b>regulator</b>: <a href="#Organization_mra-7c9b97127f73ff3605a10eb1c2cc24d1">See above (Organization/mra-7c9b97127f73ff3605a10eb1c2cc24d1)</a></p></div>
        </text>
        <identifier>
          <use value="official"/>
          <system value="https://spor.ema.europa.eu/pmswi"/>
          <value value="EU/1/19/1370/001"/>
        </identifier>
        <subject>
          <reference value="MedicinalProductDefinition/mp16598f252d07b4784b82ba43cf9e847e"/>
        </subject>
        <type>
          <coding>
            <system value="https://spor.ema.europa.eu/rmswi"/>
            <code value="220000000061"/>
            <display value="Marketing Authorisation"/>
          </coding>
        </type>
        <status>
          <coding>
            <system value="http://hl7.org/fhir/publication-status"/>
            <code value="active"/>
            <display value="Active"/>
          </coding>
        </status>
        <statusDate value="2019-07-01T13:28:17Z"/>
        <holder>
          <reference value="Organization/mah-31ff1af739c7dcf77386a86f8dd83d29"/>
        </holder>
        <regulator>
          <reference value="Organization/mra-7c9b97127f73ff3605a10eb1c2cc24d1"/>
        </regulator>
      </RegulatedAuthorization>
    </resource>
  </entry>
  <entry>
    <fullUrl value="http://hl7.eu/fhir/ig/gravitate-health/Organization/man-173fde4cb6b1018cb7ec8ab708d3961c"/>
    <resource>
      <Organization>
        <id value="man-173fde4cb6b1018cb7ec8ab708d3961c"/>
        <meta>
          <profile value="http://hl7.org/fhir/uv/emedicinal-product-info/StructureDefinition/Organization-uv-epi"/>
        </meta>
        <text>
          <status value="generated"/><div xmlns="http://www.w3.org/1999/xhtml"><a name="Organization_man-173fde4cb6b1018cb7ec8ab708d3961c"> </a><p><b>Generated Narrative: Organization</b><a name="man-173fde4cb6b1018cb7ec8ab708d3961c"> </a><a name="hcman-173fde4cb6b1018cb7ec8ab708d3961c"> </a></p><div style="display: inline-block; background-color: #d9e0e7; padding: 6px; margin: 4px; border: 1px solid #8da1b4; border-radius: 5px; line-height: 60%"><p style="margin-bottom: 0px">Resource Organization &quot;man-173fde4cb6b1018cb7ec8ab708d3961c&quot; </p><p style="margin-bottom: 0px">Profile: <a href="https://build.fhir.org/ig/HL7/emedicinal-product-info//StructureDefinition-Organization-uv-epi.html">Organization (ePI)</a></p></div><p><b>identifier</b>: <code>https://spor.ema.europa.eu/omswi</code>/ORG-100004538 (use: OFFICIAL)</p><p><b>active</b>: true</p><p><b>type</b>: Manufacturer <span style="background: LightGoldenRodYellow; margin: 4px; border: 1px solid khaki"> (rmswi#220000000033)</span></p><p><b>name</b>: GLAXO WELLCOME, S.A.</p><h3>Contacts</h3><table class="grid"><tr><td style="display: none">-</td><td><b>Address</b></td></tr><tr><td style="display: none">*</td><td>Avda. Extremadura 3, 09400 Aranda De Duero Aranda De Duero ES(WORK)</td></tr></table></div>
        </text>
        <identifier>
          <use value="official"/>
          <system value="https://spor.ema.europa.eu/omswi"/>
          <value value="ORG-100004538"/>
        </identifier>
        <active value="true"/>
        <type>
          <coding>
            <system value="https://spor.ema.europa.eu/rmswi"/>
            <code value="220000000033"/>
            <display value="Manufacturer"/>
          </coding>
        </type>
        <name value="GLAXO WELLCOME, S.A."/>
        <contact>
          <address>
            <use value="work"/>
            <type value="physical"/>
            <text value="Avda. Extremadura 3, 09400 Aranda De Duero Aranda De Duero ES"/>
            <line value="Avda. Extremadura 3, 09400 Aranda De Duero"/>
            <city value="Aranda De Duero"/>
            <country value="ES"/>
          </address>
        </contact>
      </Organization>
    </resource>
  </entry>
  <entry>
    <fullUrl value="http://hl7.eu/fhir/ig/gravitate-health/Organization/mah-31ff1af739c7dcf77386a86f8dd83d29"/>
    <resource>
      <Organization>
        <id value="mah-31ff1af739c7dcf77386a86f8dd83d29"/>
        <meta>
          <profile value="http://hl7.org/fhir/uv/emedicinal-product-info/StructureDefinition/Organization-uv-epi"/>
        </meta>
        <text>
          <status value="generated"/><div xmlns="http://www.w3.org/1999/xhtml"><a name="Organization_mah-31ff1af739c7dcf77386a86f8dd83d29"> </a><p><b>Generated Narrative: Organization</b><a name="mah-31ff1af739c7dcf77386a86f8dd83d29"> </a><a name="hcmah-31ff1af739c7dcf77386a86f8dd83d29"> </a></p><div style="display: inline-block; background-color: #d9e0e7; padding: 6px; margin: 4px; border: 1px solid #8da1b4; border-radius: 5px; line-height: 60%"><p style="margin-bottom: 0px">Resource Organization &quot;mah-31ff1af739c7dcf77386a86f8dd83d29&quot; </p><p style="margin-bottom: 0px">Profile: <a href="https://build.fhir.org/ig/HL7/emedicinal-product-info//StructureDefinition-Organization-uv-epi.html">Organization (ePI)</a></p></div><p><b>identifier</b>: <code>https://spor.ema.europa.eu/omswi</code>/ORG-100012958 (use: OFFICIAL)</p><p><b>active</b>: true</p><p><b>type</b>: Marketing authorisation holder <span style="background: LightGoldenRodYellow; margin: 4px; border: 1px solid khaki"> (rmswi#220000000034)</span></p><p><b>name</b>: ViiV Healthcare BV</p><h3>Contacts</h3><table class="grid"><tr><td style="display: none">-</td><td><b>Address</b></td></tr><tr><td style="display: none">*</td><td>Van Asch van Wijckstraat 55H Amersfoort NL(WORK)</td></tr></table></div>
        </text>
        <identifier>
          <use value="official"/>
          <system value="https://spor.ema.europa.eu/omswi"/>
          <value value="ORG-100012958"/>
        </identifier>
        <active value="true"/>
        <type>
          <coding>
            <system value="https://spor.ema.europa.eu/rmswi"/>
            <code value="220000000034"/>
            <display value="Marketing authorisation holder"/>
          </coding>
        </type>
        <name value="ViiV Healthcare BV"/>
        <contact>
          <address>
            <use value="work"/>
            <type value="physical"/>
            <text value="Van Asch van Wijckstraat 55H Amersfoort NL"/>
            <line value="Van Asch van Wijckstraat 55H"/>
            <city value="Amersfoort"/>
            <country value="NL"/>
          </address>
        </contact>
      </Organization>
    </resource>
  </entry>
  <entry>
    <fullUrl value="http://hl7.eu/fhir/ig/gravitate-health/Organization/mra-7c9b97127f73ff3605a10eb1c2cc24d1"/>
    <resource>
      <Organization>
        <id value="mra-7c9b97127f73ff3605a10eb1c2cc24d1"/>
        <meta>
          <profile value="http://hl7.org/fhir/uv/emedicinal-product-info/StructureDefinition/Organization-uv-epi"/>
        </meta>
        <text>
          <status value="generated"/><div xmlns="http://www.w3.org/1999/xhtml"><a name="Organization_mra-7c9b97127f73ff3605a10eb1c2cc24d1"> </a><p><b>Generated Narrative: Organization</b><a name="mra-7c9b97127f73ff3605a10eb1c2cc24d1"> </a><a name="hcmra-7c9b97127f73ff3605a10eb1c2cc24d1"> </a></p><div style="display: inline-block; background-color: #d9e0e7; padding: 6px; margin: 4px; border: 1px solid #8da1b4; border-radius: 5px; line-height: 60%"><p style="margin-bottom: 0px">Resource Organization &quot;mra-7c9b97127f73ff3605a10eb1c2cc24d1&quot; </p><p style="margin-bottom: 0px">Profile: <a href="https://build.fhir.org/ig/HL7/emedicinal-product-info//StructureDefinition-Organization-uv-epi.html">Organization (ePI)</a></p></div><p><b>identifier</b>: <code>https://spor.ema.europa.eu/omswi</code>/ORG-100013412 (use: OFFICIAL)</p><p><b>active</b>: true</p><p><b>type</b>: Medicines Regulatory Authority <span style="background: LightGoldenRodYellow; margin: 4px; border: 1px solid khaki"> (rmswi#220000000032)</span></p><p><b>name</b>: European Medicines Agency</p><h3>Contacts</h3><table class="grid"><tr><td style="display: none">-</td><td><b>Address</b></td></tr><tr><td style="display: none">*</td><td>Carretera De Martorell 41 61, Poligono Industrial Nord-Est Amsterdam NL(WORK)</td></tr></table></div>
        </text>
        <identifier>
          <use value="official"/>
          <system value="https://spor.ema.europa.eu/omswi"/>
          <value value="ORG-100013412"/>
        </identifier>
        <active value="true"/>
        <type>
          <coding>
            <system value="https://spor.ema.europa.eu/rmswi"/>
            <code value="220000000032"/>
            <display value="Medicines Regulatory Authority"/>
          </coding>
        </type>
        <name value="European Medicines Agency"/>
        <contact>
          <address>
            <use value="work"/>
            <type value="physical"/>
            <text value="Carretera De Martorell 41 61, Poligono Industrial Nord-Est Amsterdam NL"/>
            <line value="Carretera De Martorell 41 61, Poligono Industrial Nord-Est"/>
            <city value="Amsterdam"/>
            <postalCode value="1083 HS"/>
            <country value="NL"/>
          </address>
        </contact>
      </Organization>
    </resource>
  </entry>
  <entry>
    <fullUrl value="http://hl7.eu/fhir/ig/gravitate-health/PackagedProductDefinition/ppd-2977a2afce16a0bd914b8d242dd126b5"/>
    <resource>
      <PackagedProductDefinition>
        <id value="ppd-2977a2afce16a0bd914b8d242dd126b5"/>
        <meta>
          <profile value="http://hl7.org/fhir/uv/emedicinal-product-info/StructureDefinition/PackagedProductDefinition-uv-epi"/>
        </meta>
        <text>
          <status value="generated"/><div xmlns="http://www.w3.org/1999/xhtml"><a name="PackagedProductDefinition_ppd-2977a2afce16a0bd914b8d242dd126b5"> </a><p><b>Generated Narrative: PackagedProductDefinition</b><a name="ppd-2977a2afce16a0bd914b8d242dd126b5"> </a><a name="hcppd-2977a2afce16a0bd914b8d242dd126b5"> </a></p><div style="display: inline-block; background-color: #d9e0e7; padding: 6px; margin: 4px; border: 1px solid #8da1b4; border-radius: 5px; line-height: 60%"><p style="margin-bottom: 0px">Resource PackagedProductDefinition &quot;ppd-2977a2afce16a0bd914b8d242dd126b5&quot; </p><p style="margin-bottom: 0px">Profile: <a href="https://build.fhir.org/ig/HL7/emedicinal-product-info//StructureDefinition-PackagedProductDefinition-uv-epi.html">PackagedProductDefinition (ePI)</a></p></div><p><b>identifier</b>: <code>https://spor.ema.europa.eu/pmswi</code>/EU/1/19/1370/001 (use: OFFICIAL)</p><p><b>name</b>: Dovato 50 mg/300 mg film-coated tablets 30</p><p><b>type</b>: Chemical Medicinal Product <span style="background: LightGoldenRodYellow; margin: 4px; border: 1px solid khaki"> (rmswi#100000155527)</span></p><p><b>packageFor</b>: <a href="#MedicinalProductDefinition_mp16598f252d07b4784b82ba43cf9e847e">See above (MedicinalProductDefinition/mp16598f252d07b4784b82ba43cf9e847e)</a></p><p><b>status</b>: Active <span style="background: LightGoldenRodYellow; margin: 4px; border: 1px solid khaki"> (<a href="http://hl7.org/fhir/R5/codesystem-publication-status.html">PublicationStatus</a>#active)</span></p><p><b>statusDate</b>: 2012-02-07 13:28:17+0000</p><p><b>manufacturer</b>: <a href="#Organization_man-173fde4cb6b1018cb7ec8ab708d3961c">See above (Organization/man-173fde4cb6b1018cb7ec8ab708d3961c)</a></p><blockquote><p><b>packaging</b></p><p><b>type</b>: Box <span style="background: LightGoldenRodYellow; margin: 4px; border: 1px solid khaki"> (rmswi#100000073498)</span></p><p><b>quantity</b>: 1</p><p><b>material</b>: Cardboard <span style="background: LightGoldenRodYellow; margin: 4px; border: 1px solid khaki"> (rmswi#200000003529)</span></p><blockquote><p><b>packaging</b></p><p><b>identifier</b>: <code>https://spor.ema.europa.eu/pmswi</code>/123456</p><p><b>type</b>: Child-resistant closure <span style="background: LightGoldenRodYellow; margin: 4px; border: 1px solid khaki"> (rmswi#100000073504)</span></p><p><b>quantity</b>: 30</p><p><b>material</b>: Glass <span style="background: LightGoldenRodYellow; margin: 4px; border: 1px solid khaki"> (rmswi#200000003203)</span></p><blockquote><p><b>containedItem</b></p></blockquote></blockquote></blockquote></div>
        </text>
        <identifier>
          <use value="official"/>
          <system value="https://spor.ema.europa.eu/pmswi"/>
          <value value="EU/1/19/1370/001"/>
        </identifier>
        <name value="Dovato 50 mg/300 mg film-coated tablets 30"/>
        <type>
          <coding>
            <system value="https://spor.ema.europa.eu/rmswi"/>
            <code value="100000155527"/>
            <display value="Chemical Medicinal Product"/>
          </coding>
        </type>
        <packageFor>
          <reference value="MedicinalProductDefinition/mp16598f252d07b4784b82ba43cf9e847e"/>
        </packageFor>
        <status>
          <coding>
            <system value="http://hl7.org/fhir/publication-status"/>
            <code value="active"/>
            <display value="Active"/>
          </coding>
        </status>
        <statusDate value="2012-02-07T13:28:17Z"/>
        <manufacturer>
          <reference value="Organization/man-173fde4cb6b1018cb7ec8ab708d3961c"/>
        </manufacturer>
        <packaging>
          <type>
            <coding>
              <system value="https://spor.ema.europa.eu/rmswi"/>
              <code value="100000073498"/>
              <display value="Box"/>
            </coding>
          </type>
          <quantity value="1"/>
          <material>
            <coding>
              <system value="https://spor.ema.europa.eu/rmswi"/>
              <code value="200000003529"/>
              <display value="Cardboard"/>
            </coding>
          </material>
          <packaging>
            <identifier>
              <system value="https://spor.ema.europa.eu/pmswi"/>
              <value value="123456"/>
            </identifier>
            <type>
              <coding>
                <system value="https://spor.ema.europa.eu/rmswi"/>
                <code value="100000073504"/>
                <display value="Child-resistant closure"/>
              </coding>
            </type>
            <quantity value="30"/>
            <material>
              <coding>
                <system value="https://spor.ema.europa.eu/rmswi"/>
                <code value="200000003203"/>
                <display value="Glass"/>
              </coding>
            </material>
            <containedItem>
              <item>
                <reference>
                  <reference value="ManufacturedItemDefinition/mid-49178f16170ee8a6bc2a4361c1748d5f"/>
                </reference>
              </item>
            </containedItem>
          </packaging>
        </packaging>
      </PackagedProductDefinition>
    </resource>
  </entry>
  <entry>
    <fullUrl value="http://hl7.eu/fhir/ig/gravitate-health/MedicinalProductDefinition/mp16598f252d07b4784b82ba43cf9e847e"/>
    <resource>
      <MedicinalProductDefinition>
        <id value="mp16598f252d07b4784b82ba43cf9e847e"/>
        <meta>
          <profile value="http://hl7.org/fhir/uv/emedicinal-product-info/StructureDefinition/MedicinalProductDefinition-uv-epi"/>
        </meta>
        <text>
          <status value="generated"/><div xmlns="http://www.w3.org/1999/xhtml"><a name="MedicinalProductDefinition_mp16598f252d07b4784b82ba43cf9e847e"> </a><p><b>Generated Narrative: MedicinalProductDefinition</b><a name="mp16598f252d07b4784b82ba43cf9e847e"> </a><a name="hcmp16598f252d07b4784b82ba43cf9e847e"> </a></p><div style="display: inline-block; background-color: #d9e0e7; padding: 6px; margin: 4px; border: 1px solid #8da1b4; border-radius: 5px; line-height: 60%"><p style="margin-bottom: 0px">Resource MedicinalProductDefinition &quot;mp16598f252d07b4784b82ba43cf9e847e&quot; </p><p style="margin-bottom: 0px">Profile: <a href="https://build.fhir.org/ig/HL7/emedicinal-product-info//StructureDefinition-MedicinalProductDefinition-uv-epi.html">MedicinalProductDefinition (ePI)</a></p></div><p><b>identifier</b>: <code>https://spor.ema.europa.eu/pmswi</code>/EU/1/19/1370/001, <code>https://www.who-umc.org/phpid</code>/0x073AF2E5B92AE19E8B67635AFFB3D6CA</p><p><b>type</b>: Medicinal Product <span style="background: LightGoldenRodYellow; margin: 4px; border: 1px solid khaki"> (<a href="http://hl7.org/fhir/R5/codesystem-medicinal-product-type.html">Medicinal Product Type</a>#MedicinalProduct)</span></p><p><b>domain</b>: Human use <span style="background: LightGoldenRodYellow; margin: 4px; border: 1px solid khaki"> (<a href="http://hl7.org/fhir/R5/codesystem-medicinal-product-domain.html">Medicinal Product Domain</a>#Human)</span></p><p><b>status</b>: active <span style="background: LightGoldenRodYellow; margin: 4px; border: 1px solid khaki"> (<a href="http://hl7.org/fhir/R5/codesystem-publication-status.html">PublicationStatus</a>#active)</span></p><p><b>legalStatusOfSupply</b>: Medicinal product subject to medical prescription <span style="background: LightGoldenRodYellow; margin: 4px; border: 1px solid khaki"> (rmswi#100000072084)</span></p><blockquote><p><b>name</b></p><p><b>productName</b>: Dovato 50 mg/300 mg film-coated tablets</p><p><b>type</b>: Full name <span style="background: LightGoldenRodYellow; margin: 4px; border: 1px solid khaki"> (220000000000#220000000001)</span></p><blockquote><p><b>part</b></p><p><b>part</b>: Dovato</p><p><b>type</b>: Invented name part <span style="background: LightGoldenRodYellow; margin: 4px; border: 1px solid khaki"> (220000000000#220000000002)</span></p></blockquote><blockquote><p><b>part</b></p><p><b>part</b>: dolutegravir/lamivudine</p><p><b>type</b>: Scientific name part <span style="background: LightGoldenRodYellow; margin: 4px; border: 1px solid khaki"> (220000000000#220000000003)</span></p></blockquote><blockquote><p><b>part</b></p><p><b>part</b>: 50 mg/300 mg</p><p><b>type</b>: Strength part <span style="background: LightGoldenRodYellow; margin: 4px; border: 1px solid khaki"> (220000000000#220000000004)</span></p></blockquote><blockquote><p><b>part</b></p><p><b>part</b>: film-coated tablets</p><p><b>type</b>: Pharmaceutical dose form part <span style="background: LightGoldenRodYellow; margin: 4px; border: 1px solid khaki"> (220000000000#220000000005)</span></p></blockquote><h3>Usages</h3><table class="grid"><tr><td style="display: none">-</td><td><b>Country</b></td><td><b>Jurisdiction</b></td><td><b>Language</b></td></tr><tr><td style="display: none">*</td><td>United Kingdom <span style="background: LightGoldenRodYellow; margin: 4px; border: 1px solid khaki"> (<a href="http://terminology.hl7.org/5.3.0/CodeSystem-ISO3166Part1.html">ISO 3166-1 Codes for the representation of names of countries and their subdivisions — Part 1: Country code</a>#GBR)</span></td><td>United Kingdom <span style="background: LightGoldenRodYellow; margin: 4px; border: 1px solid khaki"> (<a href="http://terminology.hl7.org/5.3.0/CodeSystem-ISO3166Part1.html">ISO 3166-1 Codes for the representation of names of countries and their subdivisions — Part 1: Country code</a>#GBR)</span></td><td>English <span style="background: LightGoldenRodYellow; margin: 4px; border: 1px solid khaki"> (<a href="http://terminology.hl7.org/5.3.0/CodeSystem-v3-ietf3066.html">Tags for the Identification of Languages</a>#en)</span></td></tr></table></blockquote></div>
        </text>
        <identifier>
          <system value="https://spor.ema.europa.eu/pmswi"/>
          <value value="EU/1/19/1370/001"/>
        </identifier>
        <identifier>
          <system value="https://www.who-umc.org/phpid"/>
          <value value="0x073AF2E5B92AE19E8B67635AFFB3D6CA"/>
        </identifier>
        <type>
          <coding>
            <system value="http://hl7.org/fhir/medicinal-product-type"/>
            <code value="MedicinalProduct"/>
            <display value="Medicinal Product"/>
          </coding>
        </type>
        <domain>
          <coding>
            <system value="http://hl7.org/fhir/medicinal-product-domain"/>
            <code value="Human"/>
            <display value="Human use"/>
          </coding>
        </domain>
        <status>
          <coding>
            <system value="http://hl7.org/fhir/publication-status"/>
            <code value="active"/>
            <display value="active"/>
          </coding>
        </status>
        <legalStatusOfSupply>
          <coding>
            <system value="https://spor.ema.europa.eu/rmswi"/>
            <code value="100000072084"/>
            <display value="Medicinal product subject to medical prescription"/>
          </coding>
        </legalStatusOfSupply>
        <name>
          <productName value="Dovato 50 mg/300 mg film-coated tablets"/>
          <type>
            <coding>
              <system value="https://spor.ema.europa.eu/lists/220000000000"/>
              <code value="220000000001"/>
              <display value="Full name"/>
            </coding>
          </type>
          <part>
            <part value="Dovato"/>
            <type>
              <coding>
                <system value="https://spor.ema.europa.eu/lists/220000000000"/>
                <code value="220000000002"/>
                <display value="Invented name part"/>
              </coding>
            </type>
          </part>
          <part>
            <part value="dolutegravir/lamivudine"/>
            <type>
              <coding>
                <system value="https://spor.ema.europa.eu/lists/220000000000"/>
                <code value="220000000003"/>
                <display value="Scientific name part"/>
              </coding>
            </type>
          </part>
          <part>
            <part value="50 mg/300 mg"/>
            <type>
              <coding>
                <system value="https://spor.ema.europa.eu/lists/220000000000"/>
                <code value="220000000004"/>
                <display value="Strength part"/>
              </coding>
            </type>
          </part>
          <part>
            <part value="film-coated tablets"/>
            <type>
              <coding>
                <system value="https://spor.ema.europa.eu/lists/220000000000"/>
                <code value="220000000005"/>
                <display value="Pharmaceutical dose form part"/>
              </coding>
            </type>
          </part>
          <usage>
            <country>
              <coding>
                <system value="urn:iso:std:iso:3166"/>
                <code value="GBR"/>
                <display value="United Kingdom"/>
              </coding>
            </country>
            <jurisdiction>
              <coding>
                <system value="urn:iso:std:iso:3166"/>
                <code value="GBR"/>
                <display value="United Kingdom"/>
              </coding>
            </jurisdiction>
            <language>
              <coding>
                <system value="urn:ietf:bcp:47"/>
                <code value="en"/>
                <display value="English"/>
              </coding>
            </language>
          </usage>
        </name>
      </MedicinalProductDefinition>
    </resource>
  </entry>
  <entry>
    <fullUrl value="http://hl7.eu/fhir/ig/gravitate-health/ManufacturedItemDefinition/mid-49178f16170ee8a6bc2a4361c1748d5f"/>
    <resource>
      <ManufacturedItemDefinition>
        <id value="mid-49178f16170ee8a6bc2a4361c1748d5f"/>
        <meta>
          <profile value="http://hl7.org/fhir/uv/emedicinal-product-info/StructureDefinition/ManufacturedItemDefinition-uv-epi"/>
        </meta>
        <text>
          <status value="generated"/><div xmlns="http://www.w3.org/1999/xhtml"><a name="ManufacturedItemDefinition_mid-49178f16170ee8a6bc2a4361c1748d5f"> </a><p><b>Generated Narrative: ManufacturedItemDefinition</b><a name="mid-49178f16170ee8a6bc2a4361c1748d5f"> </a><a name="hcmid-49178f16170ee8a6bc2a4361c1748d5f"> </a></p><div style="display: inline-block; background-color: #d9e0e7; padding: 6px; margin: 4px; border: 1px solid #8da1b4; border-radius: 5px; line-height: 60%"><p style="margin-bottom: 0px">Resource ManufacturedItemDefinition &quot;mid-49178f16170ee8a6bc2a4361c1748d5f&quot; </p><p style="margin-bottom: 0px">Profile: <a href="https://build.fhir.org/ig/HL7/emedicinal-product-info//StructureDefinition-ManufacturedItemDefinition-uv-epi.html">ManufacturedItemDefinition (ePI)</a></p></div><p><b>identifier</b>: <code>https://spor.ema.europa.eu/pmswi</code>/EU/1/19/1370/001 (use: OFFICIAL)</p><p><b>status</b>: active</p><p><b>manufacturedDoseForm</b>: Film-coated tablet <span style="background: LightGoldenRodYellow; margin: 4px; border: 1px solid khaki"> (#100000073665)</span></p><p><b>unitOfPresentation</b>: Tablet <span style="background: LightGoldenRodYellow; margin: 4px; border: 1px solid khaki"> (rmswi#200000002152)</span></p><p><b>manufacturer</b>: <a href="#Organization_man-173fde4cb6b1018cb7ec8ab708d3961c">See above (Organization/man-173fde4cb6b1018cb7ec8ab708d3961c)</a></p></div>
        </text>
        <identifier>
          <use value="official"/>
          <system value="https://spor.ema.europa.eu/pmswi"/>
          <value value="EU/1/19/1370/001"/>
        </identifier>
        <status value="active"/>
        <manufacturedDoseForm>
          <coding>
            <system value="https://spor.ema.europa.eu/rmswi/"/>
            <code value="100000073665"/>
            <display value="Film-coated tablet"/>
          </coding>
        </manufacturedDoseForm>
        <unitOfPresentation>
          <coding>
            <system value="https://spor.ema.europa.eu/rmswi"/>
            <code value="200000002152"/>
            <display value="Tablet"/>
          </coding>
        </unitOfPresentation>
        <manufacturer>
          <reference value="Organization/man-173fde4cb6b1018cb7ec8ab708d3961c"/>
        </manufacturer>
      </ManufacturedItemDefinition>
    </resource>
  </entry>
</Bundle>