<?xml version="1.0" encoding="UTF-8"?>

<Bundle xmlns="http://hl7.org/fhir">
  <id value="bundlepackageleaflet-es-925dad38f0afbba36223a82b3a766438"/>
  <meta>
    <profile value="http://hl7.org/fhir/uv/emedicinal-product-info/StructureDefinition/Bundle-uv-epi"/>
  </meta>
  <language value="es"/>
  <identifier>
    <system value="https://www.gravitatehealth.eu/sid/doc"/>
    <value value="68290"/>
  </identifier>
  <type value="document"/>
  <timestamp value="2023-06-27T10:09:22Z"/>
  <entry>
    <fullUrl value="http://hl7.eu/fhir/ig/gravitate-health/Composition/composition-es-d4bcbbaec04bf6aceb2f71162205967e"/>
    <resource>
      <Composition>
        <id value="composition-es-d4bcbbaec04bf6aceb2f71162205967e"/>
        <meta>
          <profile value="http://hl7.org/fhir/uv/emedicinal-product-info/StructureDefinition/Composition-uv-epi"/>
        </meta>
        <language value="es"/>
        <text>
          <status value="generated"/><div xmlns="http://www.w3.org/1999/xhtml" xml:lang="es" lang="es"><a name="Composition_composition-es-d4bcbbaec04bf6aceb2f71162205967e"> </a><p><b>Generated Narrative: Composition</b><a name="composition-es-d4bcbbaec04bf6aceb2f71162205967e"> </a><a name="hccomposition-es-d4bcbbaec04bf6aceb2f71162205967e"> </a></p><div style="display: inline-block; background-color: #d9e0e7; padding: 6px; margin: 4px; border: 1px solid #8da1b4; border-radius: 5px; line-height: 60%"><p style="margin-bottom: 0px">Resource Composition &quot;composition-es-d4bcbbaec04bf6aceb2f71162205967e&quot;  (Language &quot;es&quot;) </p><p style="margin-bottom: 0px">Profile: <a href="https://build.fhir.org/ig/HL7/emedicinal-product-info//StructureDefinition-Composition-uv-epi.html">Composition (ePI)</a></p></div><p><b>identifier</b>: <code>https://spor.ema.europa.eu/rmswi/</code>/15c796b3d17f2310cd94b6867ae47c71</p><p><b>status</b>: final</p><p><b>type</b>: Package Leaflet <span style="background: LightGoldenRodYellow; margin: 4px; border: 1px solid khaki"> (#100000155538)</span></p><p><b>category</b>: Raw <span style="background: LightGoldenRodYellow; margin: 4px; border: 1px solid khaki"> (<a href="CodeSystem-epicategory-cs.html">Category of EPI</a>#R)</span></p><p><b>date</b>: 2022-02-16 13:28:17+0000</p><p><b>author</b>: <a href="#Organization_mah-b7afabe350ac415f70e662ba6c703030">See above (Organization/mah-b7afabe350ac415f70e662ba6c703030)</a></p><p><b>title</b>: TEST PURPOSES ONLY - Calcio/Vitamina D3 ROVI 1000 mg/880 UI comprimidos efervescentes</p><h3>Attesters</h3><table class="grid"><tr><td style="display: none">-</td><td><b>Mode</b></td><td><b>Time</b></td></tr><tr><td style="display: none">*</td><td>Official <span style="background: LightGoldenRodYellow; margin: 4px; border: 1px solid khaki"> (<a href="http://hl7.org/fhir/R5/codesystem-composition-attestation-mode.html">Composition Attestation Mode</a>#official)</span></td><td>2022-02-16 13:28:17+0000</td></tr></table></div>
        </text>
        <identifier>
          <system value="https://spor.ema.europa.eu/rmswi/"/>
          <value value="15c796b3d17f2310cd94b6867ae47c71"/>
        </identifier>
        <status value="final"/>
        <type>
          <coding>
            <system value="https://spor.ema.europa.eu/rmswi/"/>
            <code value="100000155538"/>
          </coding>
          <text value="Package Leaflet"/>
        </type>
        <category>
          <coding>
            <system value="http://hl7.eu/fhir/ig/gravitate-health/CodeSystem/epicategory-cs"/>
            <code value="R"/>
            <display value="Raw"/>
          </coding>
        </category>
        <subject>
          <reference value="MedicinalProductDefinition/mpd4bcbbaec04bf6aceb2f71162205967e"/>
        </subject>
        <date value="2022-02-16T13:28:17Z"/>
        <author>
          <reference value="Organization/mah-b7afabe350ac415f70e662ba6c703030"/>
        </author>
        <title value="TEST PURPOSES ONLY - Calcio/Vitamina D3 ROVI 1000 mg/880 UI comprimidos efervescentes"/>
        <attester>
          <mode>
            <coding>
              <system value="http://hl7.org/fhir/composition-attestation-mode"/>
              <code value="official"/>
            </coding>
          </mode>
          <time value="2022-02-16T13:28:17Z"/>
        </attester>
        <section>
          <title value="B. PROSPECTO"/>
          <code>
            <coding>
              <system value="https://spor.ema.europa.eu/rmswi/"/>
              <code value="100000155538"/>
            </coding>
            <text value="B. PROSPECTO"/>
          </code>
          <text>
            <status value="additional"/><div xmlns="http://www.w3.org/1999/xhtml">unavailable</div>
          </text>
          <emptyReason>
            <coding>
              <system value="http://terminology.hl7.org/CodeSystem/list-empty-reason"/>
              <code value="unavailable"/>
            </coding>
          </emptyReason>
          <section>
            <title value="PROSPECTO: INFORMACIÓN PARA EL USUARIO"/>
            <code>
              <coding>
                <system value="https://spor.ema.europa.eu/rmswi/"/>
                <code value="100000155538"/>
              </coding>
              <text value="PROSPECTO: INFORMACIÓN PARA EL USUARIO"/>
            </code>
            <text>
              <status value="additional"/><div xmlns="http://www.w3.org/1999/xhtml"><p><strong>Prospecto: información para el usuario</strong></p><p></p><p><strong>Calcio/Vitamina D</strong><strong>3</strong> <strong>ROVI 1000 mg / 880 UI comprimidos efervescentes</strong></p><p></p><p>Carbonato cálcico/colecalciferol (Vitamina D3)</p><p><strong></strong></p><p><strong>Lea todo el prospecto detenidamente antes de empezar a tomar este medicamento, porque contiene información importante para usted.</strong></p><p>-Conserve este prospecto, ya que puede tener que volver a leerlo.</p><p>-Si tiene alguna duda, consulte a su médico o farmacéutico.</p><p>-Este medicamento se le ha recetado solamente a usted, y no debe dárselo a otras personas aunque tengan los mismos síntomas que usted, ya que puede perjudicarles.</p><p>-Si experimenta efectos adversos, consulte a su médico o farmacéutico, incluso si se trata de efectos adversos que no aparecen en este prospecto. Ver sección 4.</p></div>
            </text>
          </section>
          <section>
            <title value="Contenido del prospecto"/>
            <code>
              <coding>
                <system value="https://spor.ema.europa.eu/rmswi/"/>
                <code value="100000155538"/>
              </coding>
              <text value="Contenido del prospecto"/>
            </code>
            <text>
              <status value="additional"/><div xmlns="http://www.w3.org/1999/xhtml"><p><strong>Contenido del prospecto</strong></p><ol type="1"><li>Qué es Calcio/Vitamina D3 ROVI y para qué se utiliza</li><li>Qué necesita saber antes de empezar a tomar Calcio/Vitamina D3 ROVI</li><li>Cómo tomar Calcio/Vitamina D3 ROVI</li><li>Posibles efectos adversos</li><li>Conservación de Calcio/Vitamina D3 ROVI</li><li>Contenido del envase e información adicional</li></ol></div>
            </text>
          </section>
          <section>
            <title value="1. Qué es CALCIO/VITAMINA D3 ROVI 1000 mg/880 UI COMPRIMIDOS EFERVESCENTES y para qué se utiliza"/>
            <code>
              <coding>
                <system value="https://spor.ema.europa.eu/rmswi/"/>
                <code value="100000155538"/>
              </coding>
              <text value="1. Qué es CALCIO/VITAMINA D3 ROVI 1000 mg/880 UI COMPRIMIDOS EFERVESCENTES y para qué se utiliza"/>
            </code>
            <text>
              <status value="additional"/><div xmlns="http://www.w3.org/1999/xhtml"><p>Calcio/Vitamina D3 ROVI son comprimidos efervescentes. Se presentan en envases con 30 comprimidos.</p><p>Este medicamento es una asociación de calcio y vitamina D que está indicada para la corrección de la deficiencia combinada de vitamina D y calcio en pacientes de edad avanzada así como suplemento de vitamina D y calcio como coadyuvante a la terapia específica para el tratamiento de la osteoporosis en pacientes con deficiencia o con alto riesgo de deficiencia combinada de vitamina D y calcio.</p></div>
            </text>
          </section>
          <section>
            <title value="2. Qué necesita saber antes de empezar a tomar CALCIO/VITAMINA D3 ROVI 1000 mg/880 UI COMPRIMIDOS EFERVESCENTES"/>
            <code>
              <coding>
                <system value="https://spor.ema.europa.eu/rmswi/"/>
                <code value="100000155538"/>
              </coding>
              <text value="2. Qué necesita saber antes de empezar a tomar CALCIO/VITAMINA D3 ROVI 1000 mg/880 UI COMPRIMIDOS EFERVESCENTES"/>
            </code>
            <text>
              <status value="additional"/><div xmlns="http://www.w3.org/1999/xhtml"><p><strong>No tome Calcio/Vitamina D</strong><strong>3</strong> <strong>ROVI:</strong></p><p></p><div><ul><li>si es alérgico a los principios activos o a alguno de los demás componentes de este medicamento (incluidos en la sección 6),</li><li>si usted presenta hipercalcemia (nivel de calcio anormalmente elevado en sangre),</li><li>si usted presenta hipercalciuria (eliminación exagerada de calcio en orina),</li><li>si usted tiene litiasis cálcica (cálculos en riñones), calcificación tisular (depósito de sales de calcio en los tejidos),</li><li>si usted padece una enfermedad crónica del riñón,</li><li>si usted presenta inmovilización prolongada acompañada por hipercalciuria y/o hipercalcemia.</li></ul></div><p></p><p></p><p>Este medicamento contiene aceite de soja. No debe utilizarse en caso de alergia al cacahuete o a la soja.</p><p></p><p><strong>Advertencias y precauciones:</strong></p><p></p><p>Consulte a su médico o farmacéutico antes de empezar a tomar Calcio/Vitamina D3 ROVI:</p><p></p><p>- si tiene insuficiencia renal (incapacidad del riñón para realizar correctamente su función),</p><p>- si tiene cálculos en el riñón,</p><p>- si padece una enfermedad del corazón, sarcoidosis (inflamación a nivel de los ganglios linfáticos, los pulmones, el hígado, los ojos, la piel y otros tejidos), o se encuentra en tratamiento con glucósidos cardíacos (medicamentos utilizados cuando existe una incapacidad del corazón para realizar correctamente su función),</p><p>- si recibe un tratamiento conjunto con otros productos con vitamina D, o está sometido a un tratamiento prolongado o con dosis elevadas de suplementos de calcio. En este caso es posible que su médico deba efectuar controles clínicos de forma regular. Su médico le indicará la frecuencia de estos controles.</p><p></p><p><strong>Toma de Calcio/Vitamina D</strong><strong>3</strong> <strong>ROVI con otros medicamentos:</strong></p><p></p><p>Informe a su médico o farmacéutico si está utilizando, ha utilizado recientemente o pudiera tener que utilizar cualquier otro medicamento. Ciertos medicamentos pueden interferir con Calcio/Vitamina D3 ROVI; en estos casos puede ser necesario cambiar la dosis, interrumpir el tratamiento con alguno de ellos o esperar al menos unas horas entre la administración de ambos.</p><p>Es importante que informe a su médico si está tomando o ha tomado recientemente alguno de los siguientes medicamentos:</p><div><ul><li>Glucósidos cardíacos (medicamentos para el corazón).</li><li>Tetraciclinas (ciertos antibióticos), esperar un intervalo de al menos 3 horas.</li><li>Diuréticos tiazídicos (medicamentos que aumentan la eliminación de orina).</li><li>Anticonvulsivantes.</li><li>Corticosteroides sistémicos.</li><li>Bifosfonatos y fluoruro sódico, esperar un intervalo de 3 horas.</li><li>Barbitúricos o fenitoína.</li></ul></div><p><strong></strong></p><p><strong>Toma de Calcio / Vitamina D</strong><strong>3</strong> <strong>ROVI con alimentos y, bebidas:</strong></p><p><strong></strong></p><p>Si toma este medicamento juntamente con alimentos y bebidas que contengan ácido oxálico (un compuesto presente en espinacas y ruibarbos) o ácido fítico (presente en el pan integral y cereales) y el fósforo que se encuentra en la leche pueden producirse interacciones, por lo que se aconseja no tomar este medicamento durante las 2 horas siguientes después de haber tomado este tipo de alimentos.</p><p></p><p><strong>Embarazo y lactancia</strong></p><p></p><p>Si está embarazada o en periodo de lactancia, cree que podría estar embarazada o tiene intención de quedarse embarazada, consulte a su médico o farmacéutico antes de utilizar este medicamento.</p><p></p><p>Debido al contenido en vitamina D (880 UI) de Calcio/Vitamina D3 ROVI, no está indicado su uso durante el embarazo y la lactancia, ya que la dosis diaria recomendada de vitamina D no debe superar las 600 UI/día.</p><p></p><p><strong>Conducción y uso de máquinas:</strong></p><p></p><p>No se han descrito efectos sobre la conducción o uso de máquinas.</p><p></p><p><strong>Calcio/Vitamina D</strong><strong>3</strong> <strong>ROVI contiene sacarosa, sodio, lactosa y glucosa.</strong></p><p></p><p>Este medicamento contiene sacarosa. Si su médico le ha indicado que padece una intolerancia a ciertos azúcares, consulte con él antes de tomar este medicamento. Puede producir caries.</p><p></p><p>Este medicamento contiene 96,15 mg de sodio (componente principal de la sal de mesa/para cocinar) en cada comprimido. Esto equivale al 4,8 % de la ingesta diaria máxima de sodio recomendada para un adulto.</p><p></p><p>Este medicamento contiene lactosa. Si su médico le ha indicado que padece una intolerancia a ciertos azúcares, consulte con él antes de tomar este medicamento.</p><p></p><p>Este medicamento contiene glucosa (en maltodextrina procedente de maíz). Si su médico le ha indicado que padece una intolerancia a ciertos azúcares, consulte con él antes de tomar este medicamento.</p></div>
            </text>
          </section>
          <section>
            <title value="3. Cómo tomar CALCIO/VITAMINA D3 ROVI 1000 mg/880 UI COMPRIMIDOS EFERVESCENTES"/>
            <code>
              <coding>
                <system value="https://spor.ema.europa.eu/rmswi/"/>
                <code value="100000155538"/>
              </coding>
              <text value="3. Cómo tomar CALCIO/VITAMINA D3 ROVI 1000 mg/880 UI COMPRIMIDOS EFERVESCENTES"/>
            </code>
            <text>
              <status value="additional"/><div xmlns="http://www.w3.org/1999/xhtml"><p>Siga exactamente las instrucciones de administración de este medicamento indicadas por su médico o farmacéutico. En caso de duda, consulte de nuevo a su médico o farmacéutico.</p><p></p><p><strong><span>Dosis</span></strong></p><p><em>Adultos</em></p><p>La dosis recomendada es de 1 comprimido efervescente (1000 mg de calcio y 880 UI de Vitamina D3) al día.</p><p><em></em></p><p><span>Forma y vía de administración</span></p><p>Este medicamento se administra por vía oral.</p><p>Disolver el comprimido en un vaso de agua y beber inmediatamente.</p><p></p><p><span>Duración del tratamiento</span></p><p>Su médico le indicará la duración de su tratamiento con Calcio / Vitamina D3 ROVI. No suspenda antes el tratamiento.</p><p></p><p>Siga estas instrucciones a menos que su médico le haya dado otras indicaciones distintas. En estos casos es conveniente solicitar al médico las instrucciones por escrito y asegurarse de haberlas entendido bien.</p><p></p><p>Si estima que la acción de Calcio/Vitamina D3 ROVI es demasiado fuerte o débil, comuníqueselo a su médico o farmacéutico.</p><p></p><p>Recuerde tomar su medicamento.</p><p></p><p><strong>Si toma más Calcio/Vitamina D</strong><strong>3</strong> <strong>ROVI del que debe</strong></p><p></p><p>Si toma más Calcio/Vitamina D3 ROVI del que debe, o en caso de sobredosis o ingestión accidental, consulte inmediatamente a su médico o farmacéutico o llame al Servicio de Información Toxicológica, teléfono: 91.562.04.20, indicando el medicamento y la cantidad ingerida.</p><p>La sobredosis puede provocar hipervitaminosis D (exceso de vitamina D) e hipercalcemia (nivel de calcio anormalmente elevado en sangre). Los síntomas en caso de sobredosis son: náuseas, vómitos, anorexia (trastorno de la alimentación), dolor en el abdomen, sequedad de boca o poliuria (aumento del volumen de orina eliminado), o bien, irritabilidad, letargia (cansancio excesivo), estupor (disminución de la respuesta a los estímulos) y coma (pérdida de la conciencia) en casos severos.</p><p></p><p><strong>Si olvidó tomar Calcio/Vitamina D</strong><strong>3</strong> <strong>ROVI</strong></p><p></p><p>No tome una dosis doble para compensar las dosis olvidadas.</p><p></p><p><strong>Si interrumpe el tratamiento con Calcio/Vitamina D</strong><strong>3</strong> <strong>ROVI</strong></p><p><strong></strong></p><p>Si tiene cualquier otra duda sobre el uso de este medicamento, pregunte a su médico o farmacéutico.</p></div>
            </text>
          </section>
          <section>
            <title value="4. Posibles efectos adversos"/>
            <code>
              <coding>
                <system value="https://spor.ema.europa.eu/rmswi/"/>
                <code value="100000155538"/>
              </coding>
              <text value="4. Posibles efectos adversos"/>
            </code>
            <text>
              <status value="additional"/><div xmlns="http://www.w3.org/1999/xhtml"><p>Al igual que todos los medicamentos, este medicamento puede producir efectos adversos, aunque no todas las personas los sufran.</p><p></p><p><strong>- Poco frecuente</strong>s (pueden afectar a entre 1 y 10 de cada 1.000 pacientes ):</p><ul><li>niveles altos de calcio en sangre hipercalcemia,</li><li>niveles altos de calcio en orina hipercalciuria.</li></ul><p></p><p><strong>- Raros</strong> (pueden afectar a entre 1 y 10 de cada 10.000 pacientes ):</p><ul><li>estreñimiento,</li><li>flatulencia,</li><li>náuseas,</li><li>dolor epigástrico,</li><li>diarrea.</li></ul><p></p><p>- <strong>Muy raros</strong> (pueden afectar a menos de 1 de cada 10.000 pacientes):):</p><ul><li>picor (prurito),</li><li>erupción de la piel (exantema),</li><li>ronchas (urticaria).</li></ul><p></p><p><strong>Comunicación de efectos adversos</strong></p><p>Si experimenta cualquier tipo de efecto adverso, consulte a su médico o farmacéutico, incluso si se trata de posibles efectos adversos que no aparecen en este prospecto. También puede comunicarlos directamente a través Sistema Español de Farmacovigilancia de Medicamentos de Uso Humano: <a href="https://www.notificaram.es">https://www.notificaram.es</a>. Mediante la comunicación de efectos adversos usted puede contribuir a proporcionar más información sobre la seguridad de este medicamento.</p></div>
            </text>
          </section>
          <section>
            <title value="5. CONSERVACIÓN DE CALCIO/VITAMINA D3 ROVI 1000 mg/880 UI COMPRIMIDOS EFERVESCENTES"/>
            <code>
              <coding>
                <system value="https://spor.ema.europa.eu/rmswi/"/>
                <code value="100000155538"/>
              </coding>
              <text value="5. CONSERVACIÓN DE CALCIO/VITAMINA D3 ROVI 1000 mg/880 UI COMPRIMIDOS EFERVESCENTES"/>
            </code>
            <text>
              <status value="additional"/><div xmlns="http://www.w3.org/1999/xhtml"><p>Mantener este medicamento fuera de la vista y del alcance de los niños.</p><p></p><p>Conservar en el envase original para protegerlo de la humedad.</p><p></p><p>No utilice este medicamento después de la fecha de caducidad que aparece en el envase después de CAD. La fecha de caducidad es el último día del mes que se indica.</p><p></p><p>Los medicamentos no se deben tirar por los desagües ni a la basura. Deposite los envases y los medicamentos que no necesita en el Punto SIGRE de la farmacia. En caso de duda pregunte a su farmacéutico cómo deshacerse de los envases y de los medicamentos que no necesita. De esta forma, ayudará a proteger el medio ambiente</p></div>
            </text>
          </section>
          <section>
            <title value="6. Contenido del envase e información adicional"/>
            <code>
              <coding>
                <system value="https://spor.ema.europa.eu/rmswi/"/>
                <code value="100000155538"/>
              </coding>
              <text value="6. Contenido del envase e información adicional"/>
            </code>
            <text>
              <status value="additional"/><div xmlns="http://www.w3.org/1999/xhtml"><p><strong>Composición de Calcio/Vitamina D</strong><strong>3</strong> <strong>ROVI</strong></p><p><strong></strong></p><p>-Los principios activos son: carbonato de calcio y concentrado de colecalciferol (en forma de polvo). Cada comprimido contiene 2500 mg de carbonato de calcio (equivalente a 1.000 mg de calcio) y 22 microgramos de concentrado de colecalciferol en forma de polvo (equivalente a 880 UI de colecalciferol = vitamina D3).</p><p></p><p>-Los demás componentes (excipientes) son: ácido cítrico anhidro, bicarbonato de sodio, lactosa monohidratada, povidona, sacarina sódica, ciclamato de sodio, macrogol 6000, aroma de naranja (contiene maltodextrina procedente de maíz), emulsión de simeticona, ?-tocoferol, aceite de soja hidrogenado, gelatina, sacarosa y almidón de maíz sin gluten.</p><p></p><p><strong>Aspecto del producto y contenido del envase</strong></p><p></p><p>Comprimidos efervescentes cilíndricos, de color blanco o blanquecino.</p><p>Se presentan en tubos de polipropileno, que contienen 15 comprimidos efervescentes cada uno. Cada envase contiene dos tubos (30 comprimidos efervescentes).</p><p></p><p><strong>Titular de la autorización de comercialización</strong></p><p><strong></strong></p><p>Laboratorios Farmacéuticos ROVI, S.A.</p><p>C/ Julián Camarillo, 35</p><p>28037 - Madrid</p><p>España</p><p><strong><em></em></strong></p><p><strong>Responsable de la fabricación:</strong></p><p>Laboratorios Losan Pharma GMBH</p><p>Otto-Hahn-Strasse 13</p><p>79395 - Neuenburg</p><p>Alemania</p><p><strong><em></em></strong></p><p><strong>Fecha de la última revisión de este prospecto:</strong> julio 2019</p><p>La información detallada de este medicamento está disponible en la página web de la Agencia Española de Medicamentos y Productos Sanitarios (AEMPS) (<a href="https://www.aemps.gob.es/"><span>https://www.aemps.gob.es/</span></a>)</p></div>
            </text>
          </section>
        </section>
      </Composition>
    </resource>
  </entry>
  <entry>
    <fullUrl value="http://hl7.eu/fhir/ig/gravitate-health/Ingredient/ingredient-for-calciovitaminad-calciumcarbonate"/>
    <resource>
      <Ingredient>
        <id value="ingredient-for-calciovitaminad-calciumcarbonate"/>
        <meta>
          <profile value="http://hl7.org/fhir/uv/emedicinal-product-info/StructureDefinition/Ingredient-uv-epi"/>
        </meta>
        <text>
          <status value="generated"/><div xmlns="http://www.w3.org/1999/xhtml"><a name="Ingredient_ingredient-for-calciovitaminad-calciumcarbonate"> </a><p><b>Generated Narrative: Ingredient</b><a name="ingredient-for-calciovitaminad-calciumcarbonate"> </a><a name="hcingredient-for-calciovitaminad-calciumcarbonate"> </a></p><div style="display: inline-block; background-color: #d9e0e7; padding: 6px; margin: 4px; border: 1px solid #8da1b4; border-radius: 5px; line-height: 60%"><p style="margin-bottom: 0px">Resource Ingredient &quot;ingredient-for-calciovitaminad-calciumcarbonate&quot; </p><p style="margin-bottom: 0px">Profile: <a href="https://build.fhir.org/ig/HL7/emedicinal-product-info//StructureDefinition-Ingredient-uv-epi.html">Ingredient (ePI)</a></p></div><p><b>identifier</b>: <code>https://gsrs.ncats.nih.gov/ginas/app/beta</code>/H0G9379FGK (use: OFFICIAL)</p><p><b>status</b>: active</p><p><b>for</b>: </p><ul><li><a href="#ManufacturedItemDefinition_mid-925dad38f0afbba36223a82b3a766438">See above (ManufacturedItemDefinition/mid-925dad38f0afbba36223a82b3a766438)</a></li><li><a href="#MedicinalProductDefinition_mpd4bcbbaec04bf6aceb2f71162205967e">See above (MedicinalProductDefinition/mpd4bcbbaec04bf6aceb2f71162205967e)</a></li><li><a href="#AdministrableProductDefinition_ap-925dad38f0afbba36223a82b3a766438">See above (AdministrableProductDefinition/ap-925dad38f0afbba36223a82b3a766438)</a></li></ul><p><b>role</b>: active <span style="background: LightGoldenRodYellow; margin: 4px; border: 1px solid khaki"> (rmswi#72072)</span></p><blockquote><p><b>substance</b></p><h3>Codes</h3><table class="grid"><tr><td style="display: none">-</td><td><b>Concept</b></td></tr><tr><td style="display: none">*</td><td>Calcium Carbonate <span style="background: LightGoldenRodYellow; margin: 4px; border: 1px solid khaki"> (beta#H0G9379FGK)</span></td></tr></table><h3>Strengths</h3><table class="grid"><tr><td style="display: none">-</td><td><b>Presentation[x]</b></td><td><b>Basis</b></td></tr><tr><td style="display: none">*</td><td>2500 mg<span style="background: LightGoldenRodYellow"> (Details: UCUM code mg = 'mg')</span></td><td>active ingredient - basis of strength <span style="background: LightGoldenRodYellow; margin: 4px; border: 1px solid khaki"> (<a href="http://terminology.hl7.org/5.3.0/CodeSystem-v3-RoleClass.html">RoleClass</a>#ACTIB)</span></td></tr></table></blockquote></div>
        </text>
        <identifier>
          <use value="official"/>
          <system value="https://gsrs.ncats.nih.gov/ginas/app/beta"/>
          <value value="H0G9379FGK"/>
        </identifier>
        <status value="active"/>
        <for>
          <reference value="ManufacturedItemDefinition/mid-925dad38f0afbba36223a82b3a766438"/>
        </for>
        <for>
          <reference value="MedicinalProductDefinition/mpd4bcbbaec04bf6aceb2f71162205967e"/>
        </for>
        <for>
          <reference value="AdministrableProductDefinition/ap-925dad38f0afbba36223a82b3a766438"/>
        </for>
        <role>
          <coding>
            <system value="https://spor.ema.europa.eu/rmswi"/>
            <code value="72072"/>
            <display value="active"/>
          </coding>
        </role>
        <substance>
          <code>
            <concept>
              <coding>
                <system value="https://gsrs.ncats.nih.gov/ginas/app/beta"/>
                <code value="H0G9379FGK"/>
                <display value="Calcium Carbonate"/>
              </coding>
            </concept>
          </code>
          <strength>
            <presentationQuantity>
              <value value="2500"/>
              <system value="http://unitsofmeasure.org"/>
              <code value="mg"/>
            </presentationQuantity>
            <basis>
              <coding>
                <system value="http://terminology.hl7.org/CodeSystem/v3-RoleClass"/>
                <code value="ACTIB"/>
                <display value="active ingredient - basis of strength"/>
              </coding>
            </basis>
          </strength>
        </substance>
      </Ingredient>
    </resource>
  </entry>
  <entry>
    <fullUrl value="http://hl7.eu/fhir/ig/gravitate-health/Ingredient/ingredient-for-calciovitaminad-cholecalciferol"/>
    <resource>
      <Ingredient>
        <id value="ingredient-for-calciovitaminad-cholecalciferol"/>
        <meta>
          <profile value="http://hl7.org/fhir/uv/emedicinal-product-info/StructureDefinition/Ingredient-uv-epi"/>
        </meta>
        <text>
          <status value="generated"/><div xmlns="http://www.w3.org/1999/xhtml"><a name="Ingredient_ingredient-for-calciovitaminad-cholecalciferol"> </a><p><b>Generated Narrative: Ingredient</b><a name="ingredient-for-calciovitaminad-cholecalciferol"> </a><a name="hcingredient-for-calciovitaminad-cholecalciferol"> </a></p><div style="display: inline-block; background-color: #d9e0e7; padding: 6px; margin: 4px; border: 1px solid #8da1b4; border-radius: 5px; line-height: 60%"><p style="margin-bottom: 0px">Resource Ingredient &quot;ingredient-for-calciovitaminad-cholecalciferol&quot; </p><p style="margin-bottom: 0px">Profile: <a href="https://build.fhir.org/ig/HL7/emedicinal-product-info//StructureDefinition-Ingredient-uv-epi.html">Ingredient (ePI)</a></p></div><p><b>identifier</b>: <code>https://gsrs.ncats.nih.gov/ginas/app/beta</code>/1C6V77QF41 (use: OFFICIAL)</p><p><b>status</b>: active</p><p><b>for</b>: </p><ul><li><a href="#ManufacturedItemDefinition_mid-925dad38f0afbba36223a82b3a766438">See above (ManufacturedItemDefinition/mid-925dad38f0afbba36223a82b3a766438)</a></li><li><a href="#MedicinalProductDefinition_mpd4bcbbaec04bf6aceb2f71162205967e">See above (MedicinalProductDefinition/mpd4bcbbaec04bf6aceb2f71162205967e)</a></li><li><a href="#AdministrableProductDefinition_ap-925dad38f0afbba36223a82b3a766438">See above (AdministrableProductDefinition/ap-925dad38f0afbba36223a82b3a766438)</a></li></ul><p><b>role</b>: active <span style="background: LightGoldenRodYellow; margin: 4px; border: 1px solid khaki"> (rmswi#72072)</span></p><blockquote><p><b>substance</b></p><h3>Codes</h3><table class="grid"><tr><td style="display: none">-</td><td><b>Concept</b></td></tr><tr><td style="display: none">*</td><td>cholecalciferol <span style="background: LightGoldenRodYellow; margin: 4px; border: 1px solid khaki"> (beta#1C6V77QF41)</span></td></tr></table><h3>Strengths</h3><table class="grid"><tr><td style="display: none">-</td><td><b>Presentation[x]</b></td><td><b>Basis</b></td></tr><tr><td style="display: none">*</td><td>22 ug<span style="background: LightGoldenRodYellow"> (Details: UCUM code ug = 'ug')</span></td><td>active ingredient - basis of strength <span style="background: LightGoldenRodYellow; margin: 4px; border: 1px solid khaki"> (<a href="http://terminology.hl7.org/5.3.0/CodeSystem-v3-RoleClass.html">RoleClass</a>#ACTIB)</span></td></tr></table></blockquote></div>
        </text>
        <identifier>
          <use value="official"/>
          <system value="https://gsrs.ncats.nih.gov/ginas/app/beta"/>
          <value value="1C6V77QF41"/>
        </identifier>
        <status value="active"/>
        <for>
          <reference value="ManufacturedItemDefinition/mid-925dad38f0afbba36223a82b3a766438"/>
        </for>
        <for>
          <reference value="MedicinalProductDefinition/mpd4bcbbaec04bf6aceb2f71162205967e"/>
        </for>
        <for>
          <reference value="AdministrableProductDefinition/ap-925dad38f0afbba36223a82b3a766438"/>
        </for>
        <role>
          <coding>
            <system value="https://spor.ema.europa.eu/rmswi"/>
            <code value="72072"/>
            <display value="active"/>
          </coding>
        </role>
        <substance>
          <code>
            <concept>
              <coding>
                <system value="https://gsrs.ncats.nih.gov/ginas/app/beta"/>
                <code value="1C6V77QF41"/>
                <display value="cholecalciferol"/>
              </coding>
            </concept>
          </code>
          <strength>
            <presentationQuantity>
              <value value="22"/>
              <system value="http://unitsofmeasure.org"/>
              <code value="ug"/>
            </presentationQuantity>
            <basis>
              <coding>
                <system value="http://terminology.hl7.org/CodeSystem/v3-RoleClass"/>
                <code value="ACTIB"/>
                <display value="active ingredient - basis of strength"/>
              </coding>
            </basis>
          </strength>
        </substance>
      </Ingredient>
    </resource>
  </entry>
  <entry>
    <fullUrl value="http://hl7.eu/fhir/ig/gravitate-health/Ingredient/ingredient-for-calciovitaminad-sodium"/>
    <resource>
      <Ingredient>
        <id value="ingredient-for-calciovitaminad-sodium"/>
        <meta>
          <profile value="http://hl7.org/fhir/uv/emedicinal-product-info/StructureDefinition/Ingredient-uv-epi"/>
        </meta>
        <text>
          <status value="generated"/><div xmlns="http://www.w3.org/1999/xhtml"><a name="Ingredient_ingredient-for-calciovitaminad-sodium"> </a><p><b>Generated Narrative: Ingredient</b><a name="ingredient-for-calciovitaminad-sodium"> </a><a name="hcingredient-for-calciovitaminad-sodium"> </a></p><div style="display: inline-block; background-color: #d9e0e7; padding: 6px; margin: 4px; border: 1px solid #8da1b4; border-radius: 5px; line-height: 60%"><p style="margin-bottom: 0px">Resource Ingredient &quot;ingredient-for-calciovitaminad-sodium&quot; </p><p style="margin-bottom: 0px">Profile: <a href="https://build.fhir.org/ig/HL7/emedicinal-product-info//StructureDefinition-Ingredient-uv-epi.html">Ingredient (ePI)</a></p></div><p><b>identifier</b>: <code>https://gsrs.ncats.nih.gov/ginas/app/beta</code>/9NEZ333N27 (use: OFFICIAL)</p><p><b>status</b>: active</p><p><b>for</b>: </p><ul><li><a href="#ManufacturedItemDefinition_mid-925dad38f0afbba36223a82b3a766438">See above (ManufacturedItemDefinition/mid-925dad38f0afbba36223a82b3a766438)</a></li><li><a href="#MedicinalProductDefinition_mpd4bcbbaec04bf6aceb2f71162205967e">See above (MedicinalProductDefinition/mpd4bcbbaec04bf6aceb2f71162205967e)</a></li><li><a href="#AdministrableProductDefinition_ap-925dad38f0afbba36223a82b3a766438">See above (AdministrableProductDefinition/ap-925dad38f0afbba36223a82b3a766438)</a></li></ul><p><b>role</b>: active <span style="background: LightGoldenRodYellow; margin: 4px; border: 1px solid khaki"> (rmswi#72072)</span></p><blockquote><p><b>substance</b></p><h3>Codes</h3><table class="grid"><tr><td style="display: none">-</td><td><b>Concept</b></td></tr><tr><td style="display: none">*</td><td>Sodium <span style="background: LightGoldenRodYellow; margin: 4px; border: 1px solid khaki"> (beta#9NEZ333N27)</span></td></tr></table><h3>Strengths</h3><table class="grid"><tr><td style="display: none">-</td><td><b>Presentation[x]</b></td><td><b>Basis</b></td></tr><tr><td style="display: none">*</td><td>96 mg<span style="background: LightGoldenRodYellow"> (Details: UCUM code mg = 'mg')</span></td><td>active ingredient - basis of strength <span style="background: LightGoldenRodYellow; margin: 4px; border: 1px solid khaki"> (<a href="http://terminology.hl7.org/5.3.0/CodeSystem-v3-RoleClass.html">RoleClass</a>#ACTIB)</span></td></tr></table></blockquote></div>
        </text>
        <identifier>
          <use value="official"/>
          <system value="https://gsrs.ncats.nih.gov/ginas/app/beta"/>
          <value value="9NEZ333N27"/>
        </identifier>
        <status value="active"/>
        <for>
          <reference value="ManufacturedItemDefinition/mid-925dad38f0afbba36223a82b3a766438"/>
        </for>
        <for>
          <reference value="MedicinalProductDefinition/mpd4bcbbaec04bf6aceb2f71162205967e"/>
        </for>
        <for>
          <reference value="AdministrableProductDefinition/ap-925dad38f0afbba36223a82b3a766438"/>
        </for>
        <role>
          <coding>
            <system value="https://spor.ema.europa.eu/rmswi"/>
            <code value="72072"/>
            <display value="active"/>
          </coding>
        </role>
        <substance>
          <code>
            <concept>
              <coding>
                <system value="https://gsrs.ncats.nih.gov/ginas/app/beta"/>
                <code value="9NEZ333N27"/>
                <display value="Sodium"/>
              </coding>
            </concept>
          </code>
          <strength>
            <presentationQuantity>
              <value value="96"/>
              <system value="http://unitsofmeasure.org"/>
              <code value="mg"/>
            </presentationQuantity>
            <basis>
              <coding>
                <system value="http://terminology.hl7.org/CodeSystem/v3-RoleClass"/>
                <code value="ACTIB"/>
                <display value="active ingredient - basis of strength"/>
              </coding>
            </basis>
          </strength>
        </substance>
      </Ingredient>
    </resource>
  </entry>
  <entry>
    <fullUrl value="http://hl7.eu/fhir/ig/gravitate-health/Ingredient/ingredient-for-calciovitaminad-lactosemonohydrate"/>
    <resource>
      <Ingredient>
        <id value="ingredient-for-calciovitaminad-lactosemonohydrate"/>
        <meta>
          <profile value="http://hl7.org/fhir/uv/emedicinal-product-info/StructureDefinition/Ingredient-uv-epi"/>
        </meta>
        <text>
          <status value="generated"/><div xmlns="http://www.w3.org/1999/xhtml"><a name="Ingredient_ingredient-for-calciovitaminad-lactosemonohydrate"> </a><p><b>Generated Narrative: Ingredient</b><a name="ingredient-for-calciovitaminad-lactosemonohydrate"> </a><a name="hcingredient-for-calciovitaminad-lactosemonohydrate"> </a></p><div style="display: inline-block; background-color: #d9e0e7; padding: 6px; margin: 4px; border: 1px solid #8da1b4; border-radius: 5px; line-height: 60%"><p style="margin-bottom: 0px">Resource Ingredient &quot;ingredient-for-calciovitaminad-lactosemonohydrate&quot; </p><p style="margin-bottom: 0px">Profile: <a href="https://build.fhir.org/ig/HL7/emedicinal-product-info//StructureDefinition-Ingredient-uv-epi.html">Ingredient (ePI)</a></p></div><p><b>identifier</b>: <code>https://gsrs.ncats.nih.gov/ginas/app/beta</code>/EWQ57Q8I5X (use: OFFICIAL)</p><p><b>status</b>: active</p><p><b>for</b>: </p><ul><li><a href="#ManufacturedItemDefinition_mid-925dad38f0afbba36223a82b3a766438">See above (ManufacturedItemDefinition/mid-925dad38f0afbba36223a82b3a766438)</a></li><li><a href="#MedicinalProductDefinition_mpd4bcbbaec04bf6aceb2f71162205967e">See above (MedicinalProductDefinition/mpd4bcbbaec04bf6aceb2f71162205967e)</a></li><li><a href="#AdministrableProductDefinition_ap-925dad38f0afbba36223a82b3a766438">See above (AdministrableProductDefinition/ap-925dad38f0afbba36223a82b3a766438)</a></li></ul><p><b>role</b>: active <span style="background: LightGoldenRodYellow; margin: 4px; border: 1px solid khaki"> (rmswi#72072)</span></p><blockquote><p><b>substance</b></p><h3>Codes</h3><table class="grid"><tr><td style="display: none">-</td><td><b>Concept</b></td></tr><tr><td style="display: none">*</td><td>lactose monohydrate <span style="background: LightGoldenRodYellow; margin: 4px; border: 1px solid khaki"> (beta#EWQ57Q8I5X)</span></td></tr></table><h3>Strengths</h3><table class="grid"><tr><td style="display: none">-</td><td><b>Presentation[x]</b></td><td><b>Basis</b></td></tr><tr><td style="display: none">*</td><td>396 mg<span style="background: LightGoldenRodYellow"> (Details: UCUM code mg = 'mg')</span></td><td>active ingredient - basis of strength <span style="background: LightGoldenRodYellow; margin: 4px; border: 1px solid khaki"> (<a href="http://terminology.hl7.org/5.3.0/CodeSystem-v3-RoleClass.html">RoleClass</a>#ACTIB)</span></td></tr></table></blockquote></div>
        </text>
        <identifier>
          <use value="official"/>
          <system value="https://gsrs.ncats.nih.gov/ginas/app/beta"/>
          <value value="EWQ57Q8I5X"/>
        </identifier>
        <status value="active"/>
        <for>
          <reference value="ManufacturedItemDefinition/mid-925dad38f0afbba36223a82b3a766438"/>
        </for>
        <for>
          <reference value="MedicinalProductDefinition/mpd4bcbbaec04bf6aceb2f71162205967e"/>
        </for>
        <for>
          <reference value="AdministrableProductDefinition/ap-925dad38f0afbba36223a82b3a766438"/>
        </for>
        <role>
          <coding>
            <system value="https://spor.ema.europa.eu/rmswi"/>
            <code value="72072"/>
            <display value="active"/>
          </coding>
        </role>
        <substance>
          <code>
            <concept>
              <coding>
                <system value="https://gsrs.ncats.nih.gov/ginas/app/beta"/>
                <code value="EWQ57Q8I5X"/>
                <display value="lactose monohydrate"/>
              </coding>
            </concept>
          </code>
          <strength>
            <presentationQuantity>
              <value value="396"/>
              <system value="http://unitsofmeasure.org"/>
              <code value="mg"/>
            </presentationQuantity>
            <basis>
              <coding>
                <system value="http://terminology.hl7.org/CodeSystem/v3-RoleClass"/>
                <code value="ACTIB"/>
                <display value="active ingredient - basis of strength"/>
              </coding>
            </basis>
          </strength>
        </substance>
      </Ingredient>
    </resource>
  </entry>
  <entry>
    <fullUrl value="http://hl7.eu/fhir/ig/gravitate-health/Ingredient/ingredient-for-calciovitaminad-sucrose"/>
    <resource>
      <Ingredient>
        <id value="ingredient-for-calciovitaminad-sucrose"/>
        <meta>
          <profile value="http://hl7.org/fhir/uv/emedicinal-product-info/StructureDefinition/Ingredient-uv-epi"/>
        </meta>
        <text>
          <status value="generated"/><div xmlns="http://www.w3.org/1999/xhtml"><a name="Ingredient_ingredient-for-calciovitaminad-sucrose"> </a><p><b>Generated Narrative: Ingredient</b><a name="ingredient-for-calciovitaminad-sucrose"> </a><a name="hcingredient-for-calciovitaminad-sucrose"> </a></p><div style="display: inline-block; background-color: #d9e0e7; padding: 6px; margin: 4px; border: 1px solid #8da1b4; border-radius: 5px; line-height: 60%"><p style="margin-bottom: 0px">Resource Ingredient &quot;ingredient-for-calciovitaminad-sucrose&quot; </p><p style="margin-bottom: 0px">Profile: <a href="https://build.fhir.org/ig/HL7/emedicinal-product-info//StructureDefinition-Ingredient-uv-epi.html">Ingredient (ePI)</a></p></div><p><b>identifier</b>: <code>https://gsrs.ncats.nih.gov/ginas/app/beta</code>/C151H8M554 (use: OFFICIAL)</p><p><b>status</b>: active</p><p><b>for</b>: </p><ul><li><a href="#ManufacturedItemDefinition_mid-925dad38f0afbba36223a82b3a766438">See above (ManufacturedItemDefinition/mid-925dad38f0afbba36223a82b3a766438)</a></li><li><a href="#MedicinalProductDefinition_mpd4bcbbaec04bf6aceb2f71162205967e">See above (MedicinalProductDefinition/mpd4bcbbaec04bf6aceb2f71162205967e)</a></li><li><a href="#AdministrableProductDefinition_ap-925dad38f0afbba36223a82b3a766438">See above (AdministrableProductDefinition/ap-925dad38f0afbba36223a82b3a766438)</a></li></ul><p><b>role</b>: active <span style="background: LightGoldenRodYellow; margin: 4px; border: 1px solid khaki"> (rmswi#72072)</span></p><blockquote><p><b>substance</b></p><h3>Codes</h3><table class="grid"><tr><td style="display: none">-</td><td><b>Concept</b></td></tr><tr><td style="display: none">*</td><td>sucrose <span style="background: LightGoldenRodYellow; margin: 4px; border: 1px solid khaki"> (beta#C151H8M554)</span></td></tr></table><h3>Strengths</h3><table class="grid"><tr><td style="display: none">-</td><td><b>Presentation[x]</b></td><td><b>Basis</b></td></tr><tr><td style="display: none">*</td><td>3 mg<span style="background: LightGoldenRodYellow"> (Details: UCUM code mg = 'mg')</span></td><td>active ingredient - basis of strength <span style="background: LightGoldenRodYellow; margin: 4px; border: 1px solid khaki"> (<a href="http://terminology.hl7.org/5.3.0/CodeSystem-v3-RoleClass.html">RoleClass</a>#ACTIB)</span></td></tr></table></blockquote></div>
        </text>
        <identifier>
          <use value="official"/>
          <system value="https://gsrs.ncats.nih.gov/ginas/app/beta"/>
          <value value="C151H8M554"/>
        </identifier>
        <status value="active"/>
        <for>
          <reference value="ManufacturedItemDefinition/mid-925dad38f0afbba36223a82b3a766438"/>
        </for>
        <for>
          <reference value="MedicinalProductDefinition/mpd4bcbbaec04bf6aceb2f71162205967e"/>
        </for>
        <for>
          <reference value="AdministrableProductDefinition/ap-925dad38f0afbba36223a82b3a766438"/>
        </for>
        <role>
          <coding>
            <system value="https://spor.ema.europa.eu/rmswi"/>
            <code value="72072"/>
            <display value="active"/>
          </coding>
        </role>
        <substance>
          <code>
            <concept>
              <coding>
                <system value="https://gsrs.ncats.nih.gov/ginas/app/beta"/>
                <code value="C151H8M554"/>
                <display value="sucrose"/>
              </coding>
            </concept>
          </code>
          <strength>
            <presentationQuantity>
              <value value="3"/>
              <system value="http://unitsofmeasure.org"/>
              <code value="mg"/>
            </presentationQuantity>
            <basis>
              <coding>
                <system value="http://terminology.hl7.org/CodeSystem/v3-RoleClass"/>
                <code value="ACTIB"/>
                <display value="active ingredient - basis of strength"/>
              </coding>
            </basis>
          </strength>
        </substance>
      </Ingredient>
    </resource>
  </entry>
  <entry>
    <fullUrl value="http://hl7.eu/fhir/ig/gravitate-health/Ingredient/ingredient-for-calciovitaminad-hydrogenatedsoybeanoil"/>
    <resource>
      <Ingredient>
        <id value="ingredient-for-calciovitaminad-hydrogenatedsoybeanoil"/>
        <meta>
          <profile value="http://hl7.org/fhir/uv/emedicinal-product-info/StructureDefinition/Ingredient-uv-epi"/>
        </meta>
        <text>
          <status value="generated"/><div xmlns="http://www.w3.org/1999/xhtml"><a name="Ingredient_ingredient-for-calciovitaminad-hydrogenatedsoybeanoil"> </a><p><b>Generated Narrative: Ingredient</b><a name="ingredient-for-calciovitaminad-hydrogenatedsoybeanoil"> </a><a name="hcingredient-for-calciovitaminad-hydrogenatedsoybeanoil"> </a></p><div style="display: inline-block; background-color: #d9e0e7; padding: 6px; margin: 4px; border: 1px solid #8da1b4; border-radius: 5px; line-height: 60%"><p style="margin-bottom: 0px">Resource Ingredient &quot;ingredient-for-calciovitaminad-hydrogenatedsoybeanoil&quot; </p><p style="margin-bottom: 0px">Profile: <a href="https://build.fhir.org/ig/HL7/emedicinal-product-info//StructureDefinition-Ingredient-uv-epi.html">Ingredient (ePI)</a></p></div><p><b>identifier</b>: <code>https://gsrs.ncats.nih.gov/ginas/app/beta</code>/A2M91M918C (use: OFFICIAL)</p><p><b>status</b>: active</p><p><b>for</b>: </p><ul><li><a href="#ManufacturedItemDefinition_mid-925dad38f0afbba36223a82b3a766438">See above (ManufacturedItemDefinition/mid-925dad38f0afbba36223a82b3a766438)</a></li><li><a href="#MedicinalProductDefinition_mpd4bcbbaec04bf6aceb2f71162205967e">See above (MedicinalProductDefinition/mpd4bcbbaec04bf6aceb2f71162205967e)</a></li><li><a href="#AdministrableProductDefinition_ap-925dad38f0afbba36223a82b3a766438">See above (AdministrableProductDefinition/ap-925dad38f0afbba36223a82b3a766438)</a></li></ul><p><b>role</b>: active <span style="background: LightGoldenRodYellow; margin: 4px; border: 1px solid khaki"> (rmswi#72072)</span></p><blockquote><p><b>substance</b></p><h3>Codes</h3><table class="grid"><tr><td style="display: none">-</td><td><b>Concept</b></td></tr><tr><td style="display: none">*</td><td>hydrogenated soybean oil <span style="background: LightGoldenRodYellow; margin: 4px; border: 1px solid khaki"> (beta#A2M91M918C)</span></td></tr></table><h3>Strengths</h3><table class="grid"><tr><td style="display: none">-</td><td><b>Presentation[x]</b></td><td><b>Basis</b></td></tr><tr><td style="display: none">*</td><td>0 mg<span style="background: LightGoldenRodYellow"> (Details: UCUM code mg = 'mg')</span></td><td>active ingredient - basis of strength <span style="background: LightGoldenRodYellow; margin: 4px; border: 1px solid khaki"> (<a href="http://terminology.hl7.org/5.3.0/CodeSystem-v3-RoleClass.html">RoleClass</a>#ACTIB)</span></td></tr></table></blockquote></div>
        </text>
        <identifier>
          <use value="official"/>
          <system value="https://gsrs.ncats.nih.gov/ginas/app/beta"/>
          <value value="A2M91M918C"/>
        </identifier>
        <status value="active"/>
        <for>
          <reference value="ManufacturedItemDefinition/mid-925dad38f0afbba36223a82b3a766438"/>
        </for>
        <for>
          <reference value="MedicinalProductDefinition/mpd4bcbbaec04bf6aceb2f71162205967e"/>
        </for>
        <for>
          <reference value="AdministrableProductDefinition/ap-925dad38f0afbba36223a82b3a766438"/>
        </for>
        <role>
          <coding>
            <system value="https://spor.ema.europa.eu/rmswi"/>
            <code value="72072"/>
            <display value="active"/>
          </coding>
        </role>
        <substance>
          <code>
            <concept>
              <coding>
                <system value="https://gsrs.ncats.nih.gov/ginas/app/beta"/>
                <code value="A2M91M918C"/>
                <display value="hydrogenated soybean oil"/>
              </coding>
            </concept>
          </code>
          <strength>
            <presentationQuantity>
              <value value="0"/>
              <system value="http://unitsofmeasure.org"/>
              <code value="mg"/>
            </presentationQuantity>
            <basis>
              <coding>
                <system value="http://terminology.hl7.org/CodeSystem/v3-RoleClass"/>
                <code value="ACTIB"/>
                <display value="active ingredient - basis of strength"/>
              </coding>
            </basis>
          </strength>
        </substance>
      </Ingredient>
    </resource>
  </entry>
  <entry>
    <fullUrl value="http://hl7.eu/fhir/ig/gravitate-health/Ingredient/ingredient-for-calciovitaminad-anhydrouscitricacid"/>
    <resource>
      <Ingredient>
        <id value="ingredient-for-calciovitaminad-anhydrouscitricacid"/>
        <meta>
          <profile value="http://hl7.org/fhir/uv/emedicinal-product-info/StructureDefinition/Ingredient-uv-epi"/>
        </meta>
        <text>
          <status value="generated"/><div xmlns="http://www.w3.org/1999/xhtml"><a name="Ingredient_ingredient-for-calciovitaminad-anhydrouscitricacid"> </a><p><b>Generated Narrative: Ingredient</b><a name="ingredient-for-calciovitaminad-anhydrouscitricacid"> </a><a name="hcingredient-for-calciovitaminad-anhydrouscitricacid"> </a></p><div style="display: inline-block; background-color: #d9e0e7; padding: 6px; margin: 4px; border: 1px solid #8da1b4; border-radius: 5px; line-height: 60%"><p style="margin-bottom: 0px">Resource Ingredient &quot;ingredient-for-calciovitaminad-anhydrouscitricacid&quot; </p><p style="margin-bottom: 0px">Profile: <a href="https://build.fhir.org/ig/HL7/emedicinal-product-info//StructureDefinition-Ingredient-uv-epi.html">Ingredient (ePI)</a></p></div><p><b>identifier</b>: <code>https://gsrs.ncats.nih.gov/ginas/app/beta</code>/XF417D3PSL (use: OFFICIAL)</p><p><b>status</b>: active</p><p><b>for</b>: </p><ul><li><a href="#ManufacturedItemDefinition_mid-925dad38f0afbba36223a82b3a766438">See above (ManufacturedItemDefinition/mid-925dad38f0afbba36223a82b3a766438)</a></li><li><a href="#MedicinalProductDefinition_mpd4bcbbaec04bf6aceb2f71162205967e">See above (MedicinalProductDefinition/mpd4bcbbaec04bf6aceb2f71162205967e)</a></li><li><a href="#AdministrableProductDefinition_ap-925dad38f0afbba36223a82b3a766438">See above (AdministrableProductDefinition/ap-925dad38f0afbba36223a82b3a766438)</a></li></ul><p><b>role</b>: excipient <span style="background: LightGoldenRodYellow; margin: 4px; border: 1px solid khaki"> (rmswi#100000072082)</span></p><blockquote><p><b>substance</b></p><h3>Codes</h3><table class="grid"><tr><td style="display: none">-</td><td><b>Concept</b></td></tr><tr><td style="display: none">*</td><td>Anhydrous citric acid <span style="background: LightGoldenRodYellow; margin: 4px; border: 1px solid khaki"> (beta#XF417D3PSL)</span></td></tr></table></blockquote></div>
        </text>
        <identifier>
          <use value="official"/>
          <system value="https://gsrs.ncats.nih.gov/ginas/app/beta"/>
          <value value="XF417D3PSL"/>
        </identifier>
        <status value="active"/>
        <for>
          <reference value="ManufacturedItemDefinition/mid-925dad38f0afbba36223a82b3a766438"/>
        </for>
        <for>
          <reference value="MedicinalProductDefinition/mpd4bcbbaec04bf6aceb2f71162205967e"/>
        </for>
        <for>
          <reference value="AdministrableProductDefinition/ap-925dad38f0afbba36223a82b3a766438"/>
        </for>
        <role>
          <coding>
            <system value="https://spor.ema.europa.eu/rmswi"/>
            <code value="100000072082"/>
            <display value="excipient"/>
          </coding>
        </role>
        <substance>
          <code>
            <concept>
              <coding>
                <system value="https://gsrs.ncats.nih.gov/ginas/app/beta"/>
                <code value="XF417D3PSL"/>
                <display value="Anhydrous citric acid"/>
              </coding>
            </concept>
          </code>
        </substance>
      </Ingredient>
    </resource>
  </entry>
  <entry>
    <fullUrl value="http://hl7.eu/fhir/ig/gravitate-health/Ingredient/ingredient-for-calciovitaminad-sodiumbicarbonate"/>
    <resource>
      <Ingredient>
        <id value="ingredient-for-calciovitaminad-sodiumbicarbonate"/>
        <meta>
          <profile value="http://hl7.org/fhir/uv/emedicinal-product-info/StructureDefinition/Ingredient-uv-epi"/>
        </meta>
        <text>
          <status value="generated"/><div xmlns="http://www.w3.org/1999/xhtml"><a name="Ingredient_ingredient-for-calciovitaminad-sodiumbicarbonate"> </a><p><b>Generated Narrative: Ingredient</b><a name="ingredient-for-calciovitaminad-sodiumbicarbonate"> </a><a name="hcingredient-for-calciovitaminad-sodiumbicarbonate"> </a></p><div style="display: inline-block; background-color: #d9e0e7; padding: 6px; margin: 4px; border: 1px solid #8da1b4; border-radius: 5px; line-height: 60%"><p style="margin-bottom: 0px">Resource Ingredient &quot;ingredient-for-calciovitaminad-sodiumbicarbonate&quot; </p><p style="margin-bottom: 0px">Profile: <a href="https://build.fhir.org/ig/HL7/emedicinal-product-info//StructureDefinition-Ingredient-uv-epi.html">Ingredient (ePI)</a></p></div><p><b>identifier</b>: <code>https://gsrs.ncats.nih.gov/ginas/app/beta</code>/8MDF5V39QO (use: OFFICIAL)</p><p><b>status</b>: active</p><p><b>for</b>: </p><ul><li><a href="#ManufacturedItemDefinition_mid-925dad38f0afbba36223a82b3a766438">See above (ManufacturedItemDefinition/mid-925dad38f0afbba36223a82b3a766438)</a></li><li><a href="#MedicinalProductDefinition_mpd4bcbbaec04bf6aceb2f71162205967e">See above (MedicinalProductDefinition/mpd4bcbbaec04bf6aceb2f71162205967e)</a></li><li><a href="#AdministrableProductDefinition_ap-925dad38f0afbba36223a82b3a766438">See above (AdministrableProductDefinition/ap-925dad38f0afbba36223a82b3a766438)</a></li></ul><p><b>role</b>: excipient <span style="background: LightGoldenRodYellow; margin: 4px; border: 1px solid khaki"> (rmswi#100000072082)</span></p><blockquote><p><b>substance</b></p><h3>Codes</h3><table class="grid"><tr><td style="display: none">-</td><td><b>Concept</b></td></tr><tr><td style="display: none">*</td><td>sodium bicarbonate <span style="background: LightGoldenRodYellow; margin: 4px; border: 1px solid khaki"> (beta#8MDF5V39QO)</span></td></tr></table></blockquote></div>
        </text>
        <identifier>
          <use value="official"/>
          <system value="https://gsrs.ncats.nih.gov/ginas/app/beta"/>
          <value value="8MDF5V39QO"/>
        </identifier>
        <status value="active"/>
        <for>
          <reference value="ManufacturedItemDefinition/mid-925dad38f0afbba36223a82b3a766438"/>
        </for>
        <for>
          <reference value="MedicinalProductDefinition/mpd4bcbbaec04bf6aceb2f71162205967e"/>
        </for>
        <for>
          <reference value="AdministrableProductDefinition/ap-925dad38f0afbba36223a82b3a766438"/>
        </for>
        <role>
          <coding>
            <system value="https://spor.ema.europa.eu/rmswi"/>
            <code value="100000072082"/>
            <display value="excipient"/>
          </coding>
        </role>
        <substance>
          <code>
            <concept>
              <coding>
                <system value="https://gsrs.ncats.nih.gov/ginas/app/beta"/>
                <code value="8MDF5V39QO"/>
                <display value="sodium bicarbonate"/>
              </coding>
            </concept>
          </code>
        </substance>
      </Ingredient>
    </resource>
  </entry>
  <entry>
    <fullUrl value="http://hl7.eu/fhir/ig/gravitate-health/Ingredient/ingredient-for-calciovitaminad-povidone"/>
    <resource>
      <Ingredient>
        <id value="ingredient-for-calciovitaminad-povidone"/>
        <meta>
          <profile value="http://hl7.org/fhir/uv/emedicinal-product-info/StructureDefinition/Ingredient-uv-epi"/>
        </meta>
        <text>
          <status value="generated"/><div xmlns="http://www.w3.org/1999/xhtml"><a name="Ingredient_ingredient-for-calciovitaminad-povidone"> </a><p><b>Generated Narrative: Ingredient</b><a name="ingredient-for-calciovitaminad-povidone"> </a><a name="hcingredient-for-calciovitaminad-povidone"> </a></p><div style="display: inline-block; background-color: #d9e0e7; padding: 6px; margin: 4px; border: 1px solid #8da1b4; border-radius: 5px; line-height: 60%"><p style="margin-bottom: 0px">Resource Ingredient &quot;ingredient-for-calciovitaminad-povidone&quot; </p><p style="margin-bottom: 0px">Profile: <a href="https://build.fhir.org/ig/HL7/emedicinal-product-info//StructureDefinition-Ingredient-uv-epi.html">Ingredient (ePI)</a></p></div><p><b>identifier</b>: <code>https://gsrs.ncats.nih.gov/ginas/app/beta</code>/FZ989GH94E (use: OFFICIAL)</p><p><b>status</b>: active</p><p><b>for</b>: </p><ul><li><a href="#ManufacturedItemDefinition_mid-925dad38f0afbba36223a82b3a766438">See above (ManufacturedItemDefinition/mid-925dad38f0afbba36223a82b3a766438)</a></li><li><a href="#MedicinalProductDefinition_mpd4bcbbaec04bf6aceb2f71162205967e">See above (MedicinalProductDefinition/mpd4bcbbaec04bf6aceb2f71162205967e)</a></li><li><a href="#AdministrableProductDefinition_ap-925dad38f0afbba36223a82b3a766438">See above (AdministrableProductDefinition/ap-925dad38f0afbba36223a82b3a766438)</a></li></ul><p><b>role</b>: excipient <span style="background: LightGoldenRodYellow; margin: 4px; border: 1px solid khaki"> (rmswi#100000072082)</span></p><blockquote><p><b>substance</b></p><h3>Codes</h3><table class="grid"><tr><td style="display: none">-</td><td><b>Concept</b></td></tr><tr><td style="display: none">*</td><td>povidone <span style="background: LightGoldenRodYellow; margin: 4px; border: 1px solid khaki"> (beta#FZ989GH94E)</span></td></tr></table></blockquote></div>
        </text>
        <identifier>
          <use value="official"/>
          <system value="https://gsrs.ncats.nih.gov/ginas/app/beta"/>
          <value value="FZ989GH94E"/>
        </identifier>
        <status value="active"/>
        <for>
          <reference value="ManufacturedItemDefinition/mid-925dad38f0afbba36223a82b3a766438"/>
        </for>
        <for>
          <reference value="MedicinalProductDefinition/mpd4bcbbaec04bf6aceb2f71162205967e"/>
        </for>
        <for>
          <reference value="AdministrableProductDefinition/ap-925dad38f0afbba36223a82b3a766438"/>
        </for>
        <role>
          <coding>
            <system value="https://spor.ema.europa.eu/rmswi"/>
            <code value="100000072082"/>
            <display value="excipient"/>
          </coding>
        </role>
        <substance>
          <code>
            <concept>
              <coding>
                <system value="https://gsrs.ncats.nih.gov/ginas/app/beta"/>
                <code value="FZ989GH94E"/>
                <display value="povidone"/>
              </coding>
            </concept>
          </code>
        </substance>
      </Ingredient>
    </resource>
  </entry>
  <entry>
    <fullUrl value="http://hl7.eu/fhir/ig/gravitate-health/Ingredient/ingredient-for-calciovitaminad-saccharinsodium"/>
    <resource>
      <Ingredient>
        <id value="ingredient-for-calciovitaminad-saccharinsodium"/>
        <meta>
          <profile value="http://hl7.org/fhir/uv/emedicinal-product-info/StructureDefinition/Ingredient-uv-epi"/>
        </meta>
        <text>
          <status value="generated"/><div xmlns="http://www.w3.org/1999/xhtml"><a name="Ingredient_ingredient-for-calciovitaminad-saccharinsodium"> </a><p><b>Generated Narrative: Ingredient</b><a name="ingredient-for-calciovitaminad-saccharinsodium"> </a><a name="hcingredient-for-calciovitaminad-saccharinsodium"> </a></p><div style="display: inline-block; background-color: #d9e0e7; padding: 6px; margin: 4px; border: 1px solid #8da1b4; border-radius: 5px; line-height: 60%"><p style="margin-bottom: 0px">Resource Ingredient &quot;ingredient-for-calciovitaminad-saccharinsodium&quot; </p><p style="margin-bottom: 0px">Profile: <a href="https://build.fhir.org/ig/HL7/emedicinal-product-info//StructureDefinition-Ingredient-uv-epi.html">Ingredient (ePI)</a></p></div><p><b>identifier</b>: <code>https://gsrs.ncats.nih.gov/ginas/app/beta</code>/SB8ZUX40TY (use: OFFICIAL)</p><p><b>status</b>: active</p><p><b>for</b>: </p><ul><li><a href="#ManufacturedItemDefinition_mid-925dad38f0afbba36223a82b3a766438">See above (ManufacturedItemDefinition/mid-925dad38f0afbba36223a82b3a766438)</a></li><li><a href="#MedicinalProductDefinition_mpd4bcbbaec04bf6aceb2f71162205967e">See above (MedicinalProductDefinition/mpd4bcbbaec04bf6aceb2f71162205967e)</a></li><li><a href="#AdministrableProductDefinition_ap-925dad38f0afbba36223a82b3a766438">See above (AdministrableProductDefinition/ap-925dad38f0afbba36223a82b3a766438)</a></li></ul><p><b>role</b>: excipient <span style="background: LightGoldenRodYellow; margin: 4px; border: 1px solid khaki"> (rmswi#100000072082)</span></p><blockquote><p><b>substance</b></p><h3>Codes</h3><table class="grid"><tr><td style="display: none">-</td><td><b>Concept</b></td></tr><tr><td style="display: none">*</td><td>saccharin sodium <span style="background: LightGoldenRodYellow; margin: 4px; border: 1px solid khaki"> (beta#SB8ZUX40TY)</span></td></tr></table></blockquote></div>
        </text>
        <identifier>
          <use value="official"/>
          <system value="https://gsrs.ncats.nih.gov/ginas/app/beta"/>
          <value value="SB8ZUX40TY"/>
        </identifier>
        <status value="active"/>
        <for>
          <reference value="ManufacturedItemDefinition/mid-925dad38f0afbba36223a82b3a766438"/>
        </for>
        <for>
          <reference value="MedicinalProductDefinition/mpd4bcbbaec04bf6aceb2f71162205967e"/>
        </for>
        <for>
          <reference value="AdministrableProductDefinition/ap-925dad38f0afbba36223a82b3a766438"/>
        </for>
        <role>
          <coding>
            <system value="https://spor.ema.europa.eu/rmswi"/>
            <code value="100000072082"/>
            <display value="excipient"/>
          </coding>
        </role>
        <substance>
          <code>
            <concept>
              <coding>
                <system value="https://gsrs.ncats.nih.gov/ginas/app/beta"/>
                <code value="SB8ZUX40TY"/>
                <display value="saccharin sodium"/>
              </coding>
            </concept>
          </code>
        </substance>
      </Ingredient>
    </resource>
  </entry>
  <entry>
    <fullUrl value="http://hl7.eu/fhir/ig/gravitate-health/Ingredient/ingredient-for-calciovitaminad-sodiumcyclamate"/>
    <resource>
      <Ingredient>
        <id value="ingredient-for-calciovitaminad-sodiumcyclamate"/>
        <meta>
          <profile value="http://hl7.org/fhir/uv/emedicinal-product-info/StructureDefinition/Ingredient-uv-epi"/>
        </meta>
        <text>
          <status value="generated"/><div xmlns="http://www.w3.org/1999/xhtml"><a name="Ingredient_ingredient-for-calciovitaminad-sodiumcyclamate"> </a><p><b>Generated Narrative: Ingredient</b><a name="ingredient-for-calciovitaminad-sodiumcyclamate"> </a><a name="hcingredient-for-calciovitaminad-sodiumcyclamate"> </a></p><div style="display: inline-block; background-color: #d9e0e7; padding: 6px; margin: 4px; border: 1px solid #8da1b4; border-radius: 5px; line-height: 60%"><p style="margin-bottom: 0px">Resource Ingredient &quot;ingredient-for-calciovitaminad-sodiumcyclamate&quot; </p><p style="margin-bottom: 0px">Profile: <a href="https://build.fhir.org/ig/HL7/emedicinal-product-info//StructureDefinition-Ingredient-uv-epi.html">Ingredient (ePI)</a></p></div><p><b>identifier</b>: <code>https://gsrs.ncats.nih.gov/ginas/app/beta</code>/1I6F42RME1 (use: OFFICIAL)</p><p><b>status</b>: active</p><p><b>for</b>: </p><ul><li><a href="#ManufacturedItemDefinition_mid-925dad38f0afbba36223a82b3a766438">See above (ManufacturedItemDefinition/mid-925dad38f0afbba36223a82b3a766438)</a></li><li><a href="#MedicinalProductDefinition_mpd4bcbbaec04bf6aceb2f71162205967e">See above (MedicinalProductDefinition/mpd4bcbbaec04bf6aceb2f71162205967e)</a></li><li><a href="#AdministrableProductDefinition_ap-925dad38f0afbba36223a82b3a766438">See above (AdministrableProductDefinition/ap-925dad38f0afbba36223a82b3a766438)</a></li></ul><p><b>role</b>: excipient <span style="background: LightGoldenRodYellow; margin: 4px; border: 1px solid khaki"> (rmswi#100000072082)</span></p><blockquote><p><b>substance</b></p><h3>Codes</h3><table class="grid"><tr><td style="display: none">-</td><td><b>Concept</b></td></tr><tr><td style="display: none">*</td><td>sodium cyclamate <span style="background: LightGoldenRodYellow; margin: 4px; border: 1px solid khaki"> (beta#1I6F42RME1)</span></td></tr></table></blockquote></div>
        </text>
        <identifier>
          <use value="official"/>
          <system value="https://gsrs.ncats.nih.gov/ginas/app/beta"/>
          <value value="1I6F42RME1"/>
        </identifier>
        <status value="active"/>
        <for>
          <reference value="ManufacturedItemDefinition/mid-925dad38f0afbba36223a82b3a766438"/>
        </for>
        <for>
          <reference value="MedicinalProductDefinition/mpd4bcbbaec04bf6aceb2f71162205967e"/>
        </for>
        <for>
          <reference value="AdministrableProductDefinition/ap-925dad38f0afbba36223a82b3a766438"/>
        </for>
        <role>
          <coding>
            <system value="https://spor.ema.europa.eu/rmswi"/>
            <code value="100000072082"/>
            <display value="excipient"/>
          </coding>
        </role>
        <substance>
          <code>
            <concept>
              <coding>
                <system value="https://gsrs.ncats.nih.gov/ginas/app/beta"/>
                <code value="1I6F42RME1"/>
                <display value="sodium cyclamate"/>
              </coding>
            </concept>
          </code>
        </substance>
      </Ingredient>
    </resource>
  </entry>
  <entry>
    <fullUrl value="http://hl7.eu/fhir/ig/gravitate-health/Ingredient/ingredient-for-calciovitaminad-macrogol6000"/>
    <resource>
      <Ingredient>
        <id value="ingredient-for-calciovitaminad-macrogol6000"/>
        <meta>
          <profile value="http://hl7.org/fhir/uv/emedicinal-product-info/StructureDefinition/Ingredient-uv-epi"/>
        </meta>
        <text>
          <status value="generated"/><div xmlns="http://www.w3.org/1999/xhtml"><a name="Ingredient_ingredient-for-calciovitaminad-macrogol6000"> </a><p><b>Generated Narrative: Ingredient</b><a name="ingredient-for-calciovitaminad-macrogol6000"> </a><a name="hcingredient-for-calciovitaminad-macrogol6000"> </a></p><div style="display: inline-block; background-color: #d9e0e7; padding: 6px; margin: 4px; border: 1px solid #8da1b4; border-radius: 5px; line-height: 60%"><p style="margin-bottom: 0px">Resource Ingredient &quot;ingredient-for-calciovitaminad-macrogol6000&quot; </p><p style="margin-bottom: 0px">Profile: <a href="https://build.fhir.org/ig/HL7/emedicinal-product-info//StructureDefinition-Ingredient-uv-epi.html">Ingredient (ePI)</a></p></div><p><b>identifier</b>: <code>https://gsrs.ncats.nih.gov/ginas/app/beta</code>/30IQX730WE (use: OFFICIAL)</p><p><b>status</b>: active</p><p><b>for</b>: </p><ul><li><a href="#ManufacturedItemDefinition_mid-925dad38f0afbba36223a82b3a766438">See above (ManufacturedItemDefinition/mid-925dad38f0afbba36223a82b3a766438)</a></li><li><a href="#MedicinalProductDefinition_mpd4bcbbaec04bf6aceb2f71162205967e">See above (MedicinalProductDefinition/mpd4bcbbaec04bf6aceb2f71162205967e)</a></li><li><a href="#AdministrableProductDefinition_ap-925dad38f0afbba36223a82b3a766438">See above (AdministrableProductDefinition/ap-925dad38f0afbba36223a82b3a766438)</a></li></ul><p><b>role</b>: excipient <span style="background: LightGoldenRodYellow; margin: 4px; border: 1px solid khaki"> (rmswi#100000072082)</span></p><blockquote><p><b>substance</b></p><h3>Codes</h3><table class="grid"><tr><td style="display: none">-</td><td><b>Concept</b></td></tr><tr><td style="display: none">*</td><td>macrogol 6000 <span style="background: LightGoldenRodYellow; margin: 4px; border: 1px solid khaki"> (beta#30IQX730WE)</span></td></tr></table></blockquote></div>
        </text>
        <identifier>
          <use value="official"/>
          <system value="https://gsrs.ncats.nih.gov/ginas/app/beta"/>
          <value value="30IQX730WE"/>
        </identifier>
        <status value="active"/>
        <for>
          <reference value="ManufacturedItemDefinition/mid-925dad38f0afbba36223a82b3a766438"/>
        </for>
        <for>
          <reference value="MedicinalProductDefinition/mpd4bcbbaec04bf6aceb2f71162205967e"/>
        </for>
        <for>
          <reference value="AdministrableProductDefinition/ap-925dad38f0afbba36223a82b3a766438"/>
        </for>
        <role>
          <coding>
            <system value="https://spor.ema.europa.eu/rmswi"/>
            <code value="100000072082"/>
            <display value="excipient"/>
          </coding>
        </role>
        <substance>
          <code>
            <concept>
              <coding>
                <system value="https://gsrs.ncats.nih.gov/ginas/app/beta"/>
                <code value="30IQX730WE"/>
                <display value="macrogol 6000"/>
              </coding>
            </concept>
          </code>
        </substance>
      </Ingredient>
    </resource>
  </entry>
  <entry>
    <fullUrl value="http://hl7.eu/fhir/ig/gravitate-health/SubstanceDefinition/substance-calciumcarbonate"/>
    <resource>
      <SubstanceDefinition>
        <id value="substance-calciumcarbonate"/>
        <meta>
          <profile value="http://hl7.org/fhir/uv/emedicinal-product-info/StructureDefinition/SubstanceDefinition-uv-epi"/>
        </meta>
        <text>
          <status value="generated"/><div xmlns="http://www.w3.org/1999/xhtml"><a name="SubstanceDefinition_substance-calciumcarbonate"> </a><p><b>Generated Narrative: SubstanceDefinition</b><a name="substance-calciumcarbonate"> </a><a name="hcsubstance-calciumcarbonate"> </a></p><div style="display: inline-block; background-color: #d9e0e7; padding: 6px; margin: 4px; border: 1px solid #8da1b4; border-radius: 5px; line-height: 60%"><p style="margin-bottom: 0px">Resource SubstanceDefinition &quot;substance-calciumcarbonate&quot; </p><p style="margin-bottom: 0px">Profile: <a href="https://build.fhir.org/ig/HL7/emedicinal-product-info//StructureDefinition-SubstanceDefinition-uv-epi.html">SubstanceDefinition (ePI)</a></p></div><p><b>identifier</b>: <code>https://gsrs.ncats.nih.gov/ginas/app/beta/</code>/H0G9379FGK (use: OFFICIAL)</p><p><b>version</b>: 1</p><p><b>status</b>: Active <span style="background: LightGoldenRodYellow; margin: 4px; border: 1px solid khaki"> (<a href="http://hl7.org/fhir/R5/codesystem-publication-status.html">PublicationStatus</a>#active)</span></p><p><b>manufacturer</b>: <a href="#Organization_mah-b7afabe350ac415f70e662ba6c703030">See above (Organization/mah-b7afabe350ac415f70e662ba6c703030)</a></p><h3>MolecularWeights</h3><table class="grid"><tr><td style="display: none">-</td><td><b>Type</b></td><td><b>Amount</b></td></tr><tr><td style="display: none">*</td><td>exact <span style="background: LightGoldenRodYellow; margin: 4px; border: 1px solid khaki"> ()</span></td><td>100.09</td></tr></table><h3>Structures</h3><table class="grid"><tr><td style="display: none">-</td><td><b>MolecularFormula</b></td></tr><tr><td style="display: none">*</td><td>CO3.Ca</td></tr></table><h3>Names</h3><table class="grid"><tr><td style="display: none">-</td><td><b>Name</b></td><td><b>Type</b></td></tr><tr><td style="display: none">*</td><td>CALCII CARBONAS [WHO-IP LATIN]</td><td>Chemical Name <span style="background: LightGoldenRodYellow; margin: 4px; border: 1px solid khaki"> (#x)</span></td></tr></table></div>
        </text>
        <identifier>
          <use value="official"/>
          <system value="https://gsrs.ncats.nih.gov/ginas/app/beta/"/>
          <value value="H0G9379FGK"/>
        </identifier>
        <version value="1"/>
        <status>
          <coding>
            <system value="http://hl7.org/fhir/publication-status"/>
            <code value="active"/>
          </coding>
        </status>
        <manufacturer>
          <reference value="Organization/mah-b7afabe350ac415f70e662ba6c703030"/>
        </manufacturer>
        <molecularWeight>
          <type>
            <text value="exact"/>
          </type>
          <amount>
            <value value="100.09"/>
          </amount>
        </molecularWeight>
        <structure>
          <molecularFormula value="CO3.Ca"/>
        </structure>
        <name>
          <name value="CALCII CARBONAS [WHO-IP LATIN]"/>
          <type>
            <coding>
              <system value="https://gsrs.ncats.nih.gov/ginas/app/beta/"/>
              <code value="x"/>
              <display value="Chemical Name"/>
            </coding>
          </type>
        </name>
      </SubstanceDefinition>
    </resource>
  </entry>
  <entry>
    <fullUrl value="http://hl7.eu/fhir/ig/gravitate-health/AdministrableProductDefinition/ap-925dad38f0afbba36223a82b3a766438"/>
    <resource>
      <AdministrableProductDefinition>
        <id value="ap-925dad38f0afbba36223a82b3a766438"/>
        <meta>
          <profile value="http://hl7.org/fhir/uv/emedicinal-product-info/StructureDefinition/AdministrableProductDefinition-uv-epi"/>
        </meta>
        <text>
          <status value="generated"/><div xmlns="http://www.w3.org/1999/xhtml"><a name="AdministrableProductDefinition_ap-925dad38f0afbba36223a82b3a766438"> </a><p><b>Generated Narrative: AdministrableProductDefinition</b><a name="ap-925dad38f0afbba36223a82b3a766438"> </a><a name="hcap-925dad38f0afbba36223a82b3a766438"> </a></p><div style="display: inline-block; background-color: #d9e0e7; padding: 6px; margin: 4px; border: 1px solid #8da1b4; border-radius: 5px; line-height: 60%"><p style="margin-bottom: 0px">Resource AdministrableProductDefinition &quot;ap-925dad38f0afbba36223a82b3a766438&quot; </p><p style="margin-bottom: 0px">Profile: <a href="https://build.fhir.org/ig/HL7/emedicinal-product-info//StructureDefinition-AdministrableProductDefinition-uv-epi.html">AdministrableProductDefinition (ePI)</a></p></div><p><b>identifier</b>: <code>https://spor.ema.europa.eu/pmswi</code>/xx</p><p><b>status</b>: active</p><p><b>formOf</b>: <a href="#MedicinalProductDefinition_mpd4bcbbaec04bf6aceb2f71162205967e">See above (MedicinalProductDefinition/mpd4bcbbaec04bf6aceb2f71162205967e)</a></p><p><b>administrableDoseForm</b>: Effervescent tablet <span style="background: LightGoldenRodYellow; margin: 4px; border: 1px solid khaki"> (rmswi#100000073681)</span></p><p><b>unitOfPresentation</b>: tablet <span style="background: LightGoldenRodYellow; margin: 4px; border: 1px solid khaki"> (rmswi#200000002152)</span></p><p><b>producedFrom</b>: <a href="#ManufacturedItemDefinition_mid-925dad38f0afbba36223a82b3a766438">See above (ManufacturedItemDefinition/mid-925dad38f0afbba36223a82b3a766438)</a></p><blockquote><p><b>routeOfAdministration</b></p><p><b>code</b>: Oral use <span style="background: LightGoldenRodYellow; margin: 4px; border: 1px solid khaki"> (rmswi#100000073619)</span></p><h3>TargetSpecies</h3><table class="grid"><tr><td style="display: none">-</td><td><b>Code</b></td></tr><tr><td style="display: none">*</td><td>Human <span style="background: LightGoldenRodYellow; margin: 4px; border: 1px solid khaki"> (rmswi#100000109093)</span></td></tr></table></blockquote></div>
        </text>
        <identifier>
          <system value="https://spor.ema.europa.eu/pmswi"/>
          <value value="xx"/>
        </identifier>
        <status value="active"/>
        <formOf>
          <reference value="MedicinalProductDefinition/mpd4bcbbaec04bf6aceb2f71162205967e"/>
        </formOf>
        <administrableDoseForm>
          <coding>
            <system value="https://spor.ema.europa.eu/rmswi"/>
            <code value="100000073681"/>
            <display value="Effervescent tablet"/>
          </coding>
        </administrableDoseForm>
        <unitOfPresentation>
          <coding>
            <system value="https://spor.ema.europa.eu/rmswi"/>
            <code value="200000002152"/>
            <display value="tablet"/>
          </coding>
        </unitOfPresentation>
        <producedFrom>
          <reference value="ManufacturedItemDefinition/mid-925dad38f0afbba36223a82b3a766438"/>
        </producedFrom>
        <routeOfAdministration>
          <code>
            <coding>
              <system value="https://spor.ema.europa.eu/rmswi"/>
              <code value="100000073619"/>
              <display value="Oral use"/>
            </coding>
          </code>
          <targetSpecies>
            <code>
              <coding>
                <system value="https://spor.ema.europa.eu/rmswi"/>
                <code value="100000109093"/>
                <display value="Human"/>
              </coding>
            </code>
          </targetSpecies>
        </routeOfAdministration>
      </AdministrableProductDefinition>
    </resource>
  </entry>
  <entry>
    <fullUrl value="http://hl7.eu/fhir/ig/gravitate-health/RegulatedAuthorization/authorization925dad38f0afbba36223a82b3a7664380"/>
    <resource>
      <RegulatedAuthorization>
        <id value="authorization925dad38f0afbba36223a82b3a7664380"/>
        <meta>
          <profile value="http://hl7.org/fhir/uv/emedicinal-product-info/StructureDefinition/RegulatedAuthorization-uv-epi"/>
        </meta>
        <text>
          <status value="generated"/><div xmlns="http://www.w3.org/1999/xhtml"><a name="RegulatedAuthorization_authorization925dad38f0afbba36223a82b3a7664380"> </a><p><b>Generated Narrative: RegulatedAuthorization</b><a name="authorization925dad38f0afbba36223a82b3a7664380"> </a><a name="hcauthorization925dad38f0afbba36223a82b3a7664380"> </a></p><div style="display: inline-block; background-color: #d9e0e7; padding: 6px; margin: 4px; border: 1px solid #8da1b4; border-radius: 5px; line-height: 60%"><p style="margin-bottom: 0px">Resource RegulatedAuthorization &quot;authorization925dad38f0afbba36223a82b3a7664380&quot; </p><p style="margin-bottom: 0px">Profile: <a href="https://build.fhir.org/ig/HL7/emedicinal-product-info//StructureDefinition-RegulatedAuthorization-uv-epi.html">RegulatedAuthorization (ePI)</a></p></div><p><b>identifier</b>: <code>https://spor.ema.europa.eu/pmswi</code>/68290 (use: OFFICIAL)</p><p><b>subject</b>: <a href="#MedicinalProductDefinition_mpd4bcbbaec04bf6aceb2f71162205967e">See above (MedicinalProductDefinition/mpd4bcbbaec04bf6aceb2f71162205967e)</a></p><p><b>type</b>: Marketing Authorisation <span style="background: LightGoldenRodYellow; margin: 4px; border: 1px solid khaki"> (rmswi#100000072062)</span></p><p><b>status</b>: Active <span style="background: LightGoldenRodYellow; margin: 4px; border: 1px solid khaki"> (<a href="http://hl7.org/fhir/R5/codesystem-publication-status.html">PublicationStatus</a>#active)</span></p><p><b>statusDate</b>: 2012-01-01</p><p><b>holder</b>: <a href="#Organization_mah-b7afabe350ac415f70e662ba6c703030">See above (Organization/mah-b7afabe350ac415f70e662ba6c703030)</a></p></div>
        </text>
        <identifier>
          <use value="official"/>
          <system value="https://spor.ema.europa.eu/pmswi"/>
          <value value="68290"/>
        </identifier>
        <subject>
          <reference value="MedicinalProductDefinition/mpd4bcbbaec04bf6aceb2f71162205967e"/>
        </subject>
        <type>
          <coding>
            <system value="https://spor.ema.europa.eu/rmswi"/>
            <code value="100000072062"/>
            <display value="Marketing Authorisation"/>
          </coding>
        </type>
        <status>
          <coding>
            <system value="http://hl7.org/fhir/publication-status"/>
            <code value="active"/>
            <display value="Active"/>
          </coding>
        </status>
        <statusDate value="2012-01-01"/>
        <holder>
          <reference value="Organization/mah-b7afabe350ac415f70e662ba6c703030"/>
        </holder>
      </RegulatedAuthorization>
    </resource>
  </entry>
  <entry>
    <fullUrl value="http://hl7.eu/fhir/ig/gravitate-health/Organization/mah-b7afabe350ac415f70e662ba6c703030"/>
    <resource>
      <Organization>
        <id value="mah-b7afabe350ac415f70e662ba6c703030"/>
        <meta>
          <profile value="http://hl7.org/fhir/uv/emedicinal-product-info/StructureDefinition/Organization-uv-epi"/>
        </meta>
        <text>
          <status value="generated"/><div xmlns="http://www.w3.org/1999/xhtml"><a name="Organization_mah-b7afabe350ac415f70e662ba6c703030"> </a><p><b>Generated Narrative: Organization</b><a name="mah-b7afabe350ac415f70e662ba6c703030"> </a><a name="hcmah-b7afabe350ac415f70e662ba6c703030"> </a></p><div style="display: inline-block; background-color: #d9e0e7; padding: 6px; margin: 4px; border: 1px solid #8da1b4; border-radius: 5px; line-height: 60%"><p style="margin-bottom: 0px">Resource Organization &quot;mah-b7afabe350ac415f70e662ba6c703030&quot; </p><p style="margin-bottom: 0px">Profile: <a href="https://build.fhir.org/ig/HL7/emedicinal-product-info//StructureDefinition-Organization-uv-epi.html">Organization (ePI)</a></p></div><p><b>identifier</b>: <code>https://spor.ema.europa.eu/omswi</code>/xx (use: OFFICIAL)</p><p><b>active</b>: true</p><p><b>type</b>: Marketing authorisation holder <span style="background: LightGoldenRodYellow; margin: 4px; border: 1px solid khaki"> (rmswi#220000000034)</span></p><p><b>name</b>: Laboratorios Farmacéuticos ROVI, S.A.</p><h3>Contacts</h3><table class="grid"><tr><td style="display: none">-</td><td><b>Address</b></td></tr><tr><td style="display: none">*</td><td>C/ Julián Camarillo, 35 Madrid ES(WORK)</td></tr></table></div>
        </text>
        <identifier>
          <use value="official"/>
          <system value="https://spor.ema.europa.eu/omswi"/>
          <value value="xx"/>
        </identifier>
        <active value="true"/>
        <type>
          <coding>
            <system value="https://spor.ema.europa.eu/rmswi"/>
            <code value="220000000034"/>
            <display value="Marketing authorisation holder"/>
          </coding>
        </type>
        <name value="Laboratorios Farmacéuticos ROVI, S.A."/>
        <contact>
          <address>
            <use value="work"/>
            <type value="physical"/>
            <text value="C/ Julián Camarillo, 35 Madrid ES"/>
            <line value="C/ Julián Camarillo, 35"/>
            <city value="Madrid"/>
            <postalCode value="28037"/>
            <country value="ES"/>
          </address>
        </contact>
      </Organization>
    </resource>
  </entry>
  <entry>
    <fullUrl value="http://hl7.eu/fhir/ig/gravitate-health/PackagedProductDefinition/ppd-740c0d6d7605c10cb166cd0ee16908f9"/>
    <resource>
      <PackagedProductDefinition>
        <id value="ppd-740c0d6d7605c10cb166cd0ee16908f9"/>
        <meta>
          <profile value="http://hl7.org/fhir/uv/emedicinal-product-info/StructureDefinition/PackagedProductDefinition-uv-epi"/>
        </meta>
        <text>
          <status value="generated"/><div xmlns="http://www.w3.org/1999/xhtml"><a name="PackagedProductDefinition_ppd-740c0d6d7605c10cb166cd0ee16908f9"> </a><p><b>Generated Narrative: PackagedProductDefinition</b><a name="ppd-740c0d6d7605c10cb166cd0ee16908f9"> </a><a name="hcppd-740c0d6d7605c10cb166cd0ee16908f9"> </a></p><div style="display: inline-block; background-color: #d9e0e7; padding: 6px; margin: 4px; border: 1px solid #8da1b4; border-radius: 5px; line-height: 60%"><p style="margin-bottom: 0px">Resource PackagedProductDefinition &quot;ppd-740c0d6d7605c10cb166cd0ee16908f9&quot; </p><p style="margin-bottom: 0px">Profile: <a href="https://build.fhir.org/ig/HL7/emedicinal-product-info//StructureDefinition-PackagedProductDefinition-uv-epi.html">PackagedProductDefinition (ePI)</a></p></div><p><b>identifier</b>: <code>https://spor.ema.europa.eu/pmswi</code>/x (use: OFFICIAL)</p><p><b>name</b>: Calcio/Vitamina D3 ROVI 1000 mg/880 UI comprimidos efervescentes 30</p><p><b>type</b>: Chemical Medicinal Prodcut <span style="background: LightGoldenRodYellow; margin: 4px; border: 1px solid khaki"> (rmswi#100000155527)</span></p><p><b>packageFor</b>: <a href="#MedicinalProductDefinition_mpd4bcbbaec04bf6aceb2f71162205967e">See above (MedicinalProductDefinition/mpd4bcbbaec04bf6aceb2f71162205967e)</a></p><p><b>status</b>: Active <span style="background: LightGoldenRodYellow; margin: 4px; border: 1px solid khaki"> (<a href="http://hl7.org/fhir/R5/codesystem-publication-status.html">PublicationStatus</a>#active)</span></p><p><b>statusDate</b>: 2012-01-03</p><p><b>containedItemQuantity</b>: 2500 mg<span style="background: LightGoldenRodYellow"> (Details: UCUM code mg = 'mg')</span></p><p><b>copackagedIndicator</b>: false</p><blockquote><p><b>packaging</b></p><p><b>type</b>: Box <span style="background: LightGoldenRodYellow; margin: 4px; border: 1px solid khaki"> (rmswi#100000073498)</span></p><p><b>quantity</b>: 1</p><p><b>material</b>: Cardboard <span style="background: LightGoldenRodYellow; margin: 4px; border: 1px solid khaki"> (rmswi#200000003529)</span></p><blockquote><p><b>packaging</b></p><p><b>identifier</b>: <code>https://spor.ema.europa.eu/pmswi</code>/123456</p><p><b>type</b>: Blister <span style="background: LightGoldenRodYellow; margin: 4px; border: 1px solid khaki"> (rmswi#100000073496)</span></p><p><b>quantity</b>: 30</p><p><b>material</b>: cardboard <span style="background: LightGoldenRodYellow; margin: 4px; border: 1px solid khaki"> (rmswi#xxx)</span></p><blockquote><p><b>containedItem</b></p></blockquote></blockquote></blockquote></div>
        </text>
        <identifier>
          <use value="official"/>
          <system value="https://spor.ema.europa.eu/pmswi"/>
          <value value="x"/>
        </identifier>
        <name value="Calcio/Vitamina D3 ROVI 1000 mg/880 UI comprimidos efervescentes 30"/>
        <type>
          <coding>
            <system value="https://spor.ema.europa.eu/rmswi"/>
            <code value="100000155527"/>
            <display value="Chemical Medicinal Prodcut"/>
          </coding>
        </type>
        <packageFor>
          <reference value="MedicinalProductDefinition/mpd4bcbbaec04bf6aceb2f71162205967e"/>
        </packageFor>
        <status>
          <coding>
            <system value="http://hl7.org/fhir/publication-status"/>
            <code value="active"/>
            <display value="Active"/>
          </coding>
        </status>
        <statusDate value="2012-01-03"/>
        <containedItemQuantity>
          <value value="2500"/>
          <system value="http://unitsofmeasure.org"/>
          <code value="mg"/>
        </containedItemQuantity>
        <copackagedIndicator value="false"/>
        <packaging>
          <type>
            <coding>
              <system value="https://spor.ema.europa.eu/rmswi"/>
              <code value="100000073498"/>
              <display value="Box"/>
            </coding>
          </type>
          <quantity value="1"/>
          <material>
            <coding>
              <system value="https://spor.ema.europa.eu/rmswi"/>
              <code value="200000003529"/>
              <display value="Cardboard"/>
            </coding>
          </material>
          <packaging>
            <identifier>
              <system value="https://spor.ema.europa.eu/pmswi"/>
              <value value="123456"/>
            </identifier>
            <type>
              <coding>
                <system value="https://spor.ema.europa.eu/rmswi"/>
                <code value="100000073496"/>
                <display value="Blister"/>
              </coding>
            </type>
            <quantity value="30"/>
            <material>
              <coding>
                <system value="https://spor.ema.europa.eu/rmswi"/>
                <code value="xxx"/>
                <display value="cardboard"/>
              </coding>
            </material>
            <containedItem>
              <item>
                <reference>
                  <reference value="ManufacturedItemDefinition/mid-925dad38f0afbba36223a82b3a766438"/>
                </reference>
              </item>
            </containedItem>
          </packaging>
        </packaging>
      </PackagedProductDefinition>
    </resource>
  </entry>
  <entry>
    <fullUrl value="http://hl7.eu/fhir/ig/gravitate-health/MedicinalProductDefinition/mpd4bcbbaec04bf6aceb2f71162205967e"/>
    <resource>
      <MedicinalProductDefinition>
        <id value="mpd4bcbbaec04bf6aceb2f71162205967e"/>
        <meta>
          <profile value="http://hl7.org/fhir/uv/emedicinal-product-info/StructureDefinition/MedicinalProductDefinition-uv-epi"/>
        </meta>
        <text>
          <status value="generated"/><div xmlns="http://www.w3.org/1999/xhtml"><a name="MedicinalProductDefinition_mpd4bcbbaec04bf6aceb2f71162205967e"> </a><p><b>Generated Narrative: MedicinalProductDefinition</b><a name="mpd4bcbbaec04bf6aceb2f71162205967e"> </a><a name="hcmpd4bcbbaec04bf6aceb2f71162205967e"> </a></p><div style="display: inline-block; background-color: #d9e0e7; padding: 6px; margin: 4px; border: 1px solid #8da1b4; border-radius: 5px; line-height: 60%"><p style="margin-bottom: 0px">Resource MedicinalProductDefinition &quot;mpd4bcbbaec04bf6aceb2f71162205967e&quot; </p><p style="margin-bottom: 0px">Profile: <a href="https://build.fhir.org/ig/HL7/emedicinal-product-info//StructureDefinition-MedicinalProductDefinition-uv-epi.html">MedicinalProductDefinition (ePI)</a></p></div><p><b>identifier</b>: <code>https://spor.ema.europa.eu/pmswi</code>/68290, <code>https://www.who-umc.org/phpid</code>/0xF79CABF272B6A7EEF104DDDA44E82716</p><p><b>type</b>: Medicinal Product <span style="background: LightGoldenRodYellow; margin: 4px; border: 1px solid khaki"> (<a href="http://hl7.org/fhir/R5/codesystem-medicinal-product-type.html">Medicinal Product Type</a>#MedicinalProduct)</span></p><p><b>domain</b>: Human use <span style="background: LightGoldenRodYellow; margin: 4px; border: 1px solid khaki"> (<a href="http://hl7.org/fhir/R5/codesystem-medicinal-product-domain.html">Medicinal Product Domain</a>#Human)</span></p><p><b>status</b>: active <span style="background: LightGoldenRodYellow; margin: 4px; border: 1px solid khaki"> (<a href="http://hl7.org/fhir/R5/codesystem-publication-status.html">PublicationStatus</a>#active)</span></p><p><b>legalStatusOfSupply</b>: Medicinal product subject to medical prescription <span style="background: LightGoldenRodYellow; margin: 4px; border: 1px solid khaki"> (rmswi#100000000000)</span></p><blockquote><p><b>name</b></p><p><b>productName</b>: Calcio/Vitamina D3 ROVI 1000 mg/880 UI comprimidos efervescentes</p><p><b>type</b>: Full name <span style="background: LightGoldenRodYellow; margin: 4px; border: 1px solid khaki"> (220000000000#220000000001)</span></p><blockquote><p><b>part</b></p><p><b>part</b>: Calcio/Vitamina</p><p><b>type</b>: Invented name part <span style="background: LightGoldenRodYellow; margin: 4px; border: 1px solid khaki"> (220000000000#220000000002)</span></p></blockquote><blockquote><p><b>part</b></p><p><b>part</b>: Calcium carbonate/Vitamin D3</p><p><b>type</b>: Scientific name part <span style="background: LightGoldenRodYellow; margin: 4px; border: 1px solid khaki"> (220000000000#220000000003)</span></p></blockquote><blockquote><p><b>part</b></p><p><b>part</b>: 2500 mg</p><p><b>type</b>: Strength part <span style="background: LightGoldenRodYellow; margin: 4px; border: 1px solid khaki"> (220000000000#220000000004)</span></p></blockquote><blockquote><p><b>part</b></p><p><b>part</b>: Effervescent tablet</p><p><b>type</b>: Pharmaceutical dose form part <span style="background: LightGoldenRodYellow; margin: 4px; border: 1px solid khaki"> (220000000000#220000000005)</span></p></blockquote><h3>Usages</h3><table class="grid"><tr><td style="display: none">-</td><td><b>Country</b></td><td><b>Jurisdiction</b></td><td><b>Language</b></td></tr><tr><td style="display: none">*</td><td>Spain <span style="background: LightGoldenRodYellow; margin: 4px; border: 1px solid khaki"> (<a href="http://terminology.hl7.org/5.3.0/CodeSystem-ISO3166Part1.html">ISO 3166-1 Codes for the representation of names of countries and their subdivisions — Part 1: Country code</a>#ES)</span></td><td>Spain <span style="background: LightGoldenRodYellow; margin: 4px; border: 1px solid khaki"> (<a href="http://terminology.hl7.org/5.3.0/CodeSystem-ISO3166Part1.html">ISO 3166-1 Codes for the representation of names of countries and their subdivisions — Part 1: Country code</a>#ES)</span></td><td>English <span style="background: LightGoldenRodYellow; margin: 4px; border: 1px solid khaki"> (<a href="http://terminology.hl7.org/5.3.0/CodeSystem-v3-ietf3066.html">Tags for the Identification of Languages</a>#en)</span></td></tr></table></blockquote></div>
        </text>
        <identifier>
          <system value="https://spor.ema.europa.eu/pmswi"/>
          <value value="68290"/>
        </identifier>
        <identifier>
          <system value="https://www.who-umc.org/phpid"/>
          <value value="0xF79CABF272B6A7EEF104DDDA44E82716"/>
        </identifier>
        <type>
          <coding>
            <system value="http://hl7.org/fhir/medicinal-product-type"/>
            <code value="MedicinalProduct"/>
            <display value="Medicinal Product"/>
          </coding>
        </type>
        <domain>
          <coding>
            <system value="http://hl7.org/fhir/medicinal-product-domain"/>
            <code value="Human"/>
            <display value="Human use"/>
          </coding>
        </domain>
        <status>
          <coding>
            <system value="http://hl7.org/fhir/publication-status"/>
            <code value="active"/>
            <display value="active"/>
          </coding>
        </status>
        <legalStatusOfSupply>
          <coding>
            <system value="https://spor.ema.europa.eu/rmswi"/>
            <code value="100000000000"/>
            <display value="Medicinal product subject to medical prescription"/>
          </coding>
        </legalStatusOfSupply>
        <name>
          <productName value="Calcio/Vitamina D3 ROVI 1000 mg/880 UI comprimidos efervescentes"/>
          <type>
            <coding>
              <system value="https://spor.ema.europa.eu/lists/220000000000"/>
              <code value="220000000001"/>
              <display value="Full name"/>
            </coding>
          </type>
          <part>
            <part value="Calcio/Vitamina"/>
            <type>
              <coding>
                <system value="https://spor.ema.europa.eu/lists/220000000000"/>
                <code value="220000000002"/>
                <display value="Invented name part"/>
              </coding>
            </type>
          </part>
          <part>
            <part value="Calcium carbonate/Vitamin D3"/>
            <type>
              <coding>
                <system value="https://spor.ema.europa.eu/lists/220000000000"/>
                <code value="220000000003"/>
                <display value="Scientific name part"/>
              </coding>
            </type>
          </part>
          <part>
            <part value="2500 mg"/>
            <type>
              <coding>
                <system value="https://spor.ema.europa.eu/lists/220000000000"/>
                <code value="220000000004"/>
                <display value="Strength part"/>
              </coding>
            </type>
          </part>
          <part>
            <part value="Effervescent tablet"/>
            <type>
              <coding>
                <system value="https://spor.ema.europa.eu/lists/220000000000"/>
                <code value="220000000005"/>
                <display value="Pharmaceutical dose form part"/>
              </coding>
            </type>
          </part>
          <usage>
            <country>
              <coding>
                <system value="urn:iso:std:iso:3166"/>
                <code value="ES"/>
              </coding>
            </country>
            <jurisdiction>
              <coding>
                <system value="urn:iso:std:iso:3166"/>
                <code value="ES"/>
              </coding>
            </jurisdiction>
            <language>
              <coding>
                <system value="urn:ietf:bcp:47"/>
                <code value="en"/>
                <display value="English"/>
              </coding>
            </language>
          </usage>
        </name>
      </MedicinalProductDefinition>
    </resource>
  </entry>
  <entry>
    <fullUrl value="http://hl7.eu/fhir/ig/gravitate-health/ManufacturedItemDefinition/mid-925dad38f0afbba36223a82b3a766438"/>
    <resource>
      <ManufacturedItemDefinition>
        <id value="mid-925dad38f0afbba36223a82b3a766438"/>
        <meta>
          <profile value="http://hl7.org/fhir/uv/emedicinal-product-info/StructureDefinition/ManufacturedItemDefinition-uv-epi"/>
        </meta>
        <text>
          <status value="generated"/><div xmlns="http://www.w3.org/1999/xhtml"><a name="ManufacturedItemDefinition_mid-925dad38f0afbba36223a82b3a766438"> </a><p><b>Generated Narrative: ManufacturedItemDefinition</b><a name="mid-925dad38f0afbba36223a82b3a766438"> </a><a name="hcmid-925dad38f0afbba36223a82b3a766438"> </a></p><div style="display: inline-block; background-color: #d9e0e7; padding: 6px; margin: 4px; border: 1px solid #8da1b4; border-radius: 5px; line-height: 60%"><p style="margin-bottom: 0px">Resource ManufacturedItemDefinition &quot;mid-925dad38f0afbba36223a82b3a766438&quot; </p><p style="margin-bottom: 0px">Profile: <a href="https://build.fhir.org/ig/HL7/emedicinal-product-info//StructureDefinition-ManufacturedItemDefinition-uv-epi.html">ManufacturedItemDefinition (ePI)</a></p></div><p><b>identifier</b>: <code>https://spor.ema.europa.eu/pmswi</code>/68290 (use: OFFICIAL)</p><p><b>status</b>: active</p><p><b>manufacturedDoseForm</b>: Effervescent tablet <span style="background: LightGoldenRodYellow; margin: 4px; border: 1px solid khaki"> (#100000073681)</span></p><p><b>unitOfPresentation</b>: tablet <span style="background: LightGoldenRodYellow; margin: 4px; border: 1px solid khaki"> (rmswi#200000002152)</span></p></div>
        </text>
        <identifier>
          <use value="official"/>
          <system value="https://spor.ema.europa.eu/pmswi"/>
          <value value="68290"/>
        </identifier>
        <status value="active"/>
        <manufacturedDoseForm>
          <coding>
            <system value="https://spor.ema.europa.eu/rmswi/"/>
            <code value="100000073681"/>
            <display value="Effervescent tablet"/>
          </coding>
        </manufacturedDoseForm>
        <unitOfPresentation>
          <coding>
            <system value="https://spor.ema.europa.eu/rmswi"/>
            <code value="200000002152"/>
            <display value="tablet"/>
          </coding>
        </unitOfPresentation>
      </ManufacturedItemDefinition>
    </resource>
  </entry>
</Bundle>