<?xml version="1.0" encoding="UTF-8"?>

<Bundle xmlns="http://hl7.org/fhir">
  <id value="bundlepackageleaflet-en-635d47ee543a5a9e15fcd321ee5fe6bb"/>
  <meta>
    <profile value="http://hl7.org/fhir/uv/emedicinal-product-info/StructureDefinition/Bundle-uv-epi"/>
  </meta>
  <language value="en"/>
  <identifier>
    <system value="https://www.gravitatehealth.eu/sid/doc"/>
    <value value="vaxigriptetra"/>
  </identifier>
  <type value="document"/>
  <timestamp value="2023-06-27T10:09:22Z"/>
  <entry>
    <fullUrl value="http://hl7.eu/fhir/ig/gravitate-health/Composition/composition-en-822aeee7cf35efce0583ec39919328fb"/>
    <resource>
      <Composition>
        <id value="composition-en-822aeee7cf35efce0583ec39919328fb"/>
        <meta>
          <profile value="http://hl7.org/fhir/uv/emedicinal-product-info/StructureDefinition/Composition-uv-epi"/>
        </meta>
        <language value="en"/>
        <text>
          <status value="generated"/><div xmlns="http://www.w3.org/1999/xhtml" xml:lang="en" lang="en"><a name="Composition_composition-en-822aeee7cf35efce0583ec39919328fb"> </a><p><b>Generated Narrative: Composition</b><a name="composition-en-822aeee7cf35efce0583ec39919328fb"> </a><a name="hccomposition-en-822aeee7cf35efce0583ec39919328fb"> </a></p><div style="display: inline-block; background-color: #d9e0e7; padding: 6px; margin: 4px; border: 1px solid #8da1b4; border-radius: 5px; line-height: 60%"><p style="margin-bottom: 0px">Resource Composition &quot;composition-en-822aeee7cf35efce0583ec39919328fb&quot;  (Language &quot;en&quot;) </p><p style="margin-bottom: 0px">Profile: <a href="https://build.fhir.org/ig/HL7/emedicinal-product-info//StructureDefinition-Composition-uv-epi.html">Composition (ePI)</a></p></div><p><b>identifier</b>: <code>https://spor.ema.europa.eu/rmswi/</code>/70d297fbf8cb6fb1fb345ef62d74745f</p><p><b>status</b>: final</p><p><b>type</b>: Package Leaflet <span style="background: LightGoldenRodYellow; margin: 4px; border: 1px solid khaki"> (#100000155538)</span></p><p><b>category</b>: Raw <span style="background: LightGoldenRodYellow; margin: 4px; border: 1px solid khaki"> (<a href="CodeSystem-epicategory-cs.html">Category of EPI</a>#R)</span></p><p><b>date</b>: 2022-02-16 13:28:17+0000</p><p><b>author</b>: <a href="#Organization_mah-46a3afc149c080384b82a9e476e79f76">See above (Organization/mah-46a3afc149c080384b82a9e476e79f76)</a></p><p><b>title</b>: TEST PURPOSES ONLY - Fluenz Tetra nasal spray suspension</p><h3>Attesters</h3><table class="grid"><tr><td style="display: none">-</td><td><b>Mode</b></td><td><b>Time</b></td></tr><tr><td style="display: none">*</td><td>Official <span style="background: LightGoldenRodYellow; margin: 4px; border: 1px solid khaki"> (<a href="http://hl7.org/fhir/R5/codesystem-composition-attestation-mode.html">Composition Attestation Mode</a>#official)</span></td><td>2022-02-16 13:28:17+0000</td></tr></table></div>
        </text>
        <identifier>
          <system value="https://spor.ema.europa.eu/rmswi/"/>
          <value value="70d297fbf8cb6fb1fb345ef62d74745f"/>
        </identifier>
        <status value="final"/>
        <type>
          <coding>
            <system value="https://spor.ema.europa.eu/rmswi/"/>
            <code value="100000155538"/>
          </coding>
          <text value="Package Leaflet"/>
        </type>
        <category>
          <coding>
            <system value="http://hl7.eu/fhir/ig/gravitate-health/CodeSystem/epicategory-cs"/>
            <code value="R"/>
            <display value="Raw"/>
          </coding>
        </category>
        <subject>
          <reference value="MedicinalProductDefinition/mp822aeee7cf35efce0583ec39919328fb"/>
        </subject>
        <date value="2022-02-16T13:28:17Z"/>
        <author>
          <reference value="Organization/mah-46a3afc149c080384b82a9e476e79f76"/>
        </author>
        <title value="TEST PURPOSES ONLY - Fluenz Tetra nasal spray suspension"/>
        <attester>
          <mode>
            <coding>
              <system value="http://hl7.org/fhir/composition-attestation-mode"/>
              <code value="official"/>
            </coding>
          </mode>
          <time value="2022-02-16T13:28:17Z"/>
        </attester>
        <section>
          <title value="B. Package Leaflet"/>
          <code>
            <coding>
              <system value="https://spor.ema.europa.eu/rmswi/"/>
              <code value="100000155538"/>
            </coding>
            <text value="B. PACKAGE LEAFLET"/>
          </code>
          <text>
            <status value="additional"/><div xmlns="http://www.w3.org/1999/xhtml">unavailable</div>
          </text>
          <emptyReason>
            <coding>
              <system value="http://terminology.hl7.org/CodeSystem/list-empty-reason"/>
              <code value="unavailable"/>
            </coding>
          </emptyReason>
          <section>
            <title value="Package leaflet: Information for the user"/>
            <code>
              <coding>
                <system value="https://spor.ema.europa.eu/rmswi/"/>
                <code value="100000155538"/>
              </coding>
              <text value="Package leaflet: Information for the user"/>
            </code>
            <text>
              <status value="additional"/><div xmlns="http://www.w3.org/1999/xhtml"><p>Read all of this leaflet carefully before the vaccine is given because it contains important information for you or your child.</p><ul><li>Keep this leaflet. You may need to read it again.</li><li>If you have any further questions, ask your doctor, nurse or pharmacist.</li><li>This vaccine has been prescribed for you or your child only. Do not pass it on to others.</li><li>If any of the side effects gets serious, talk to your doctor, nurse or pharmacist. This includes any possible side effects not listed in this leaflet. See section 4.</li></ul></div>
            </text>
          </section>
          <section>
            <title value="What is in this leaflet"/>
            <code>
              <coding>
                <system value="https://spor.ema.europa.eu/rmswi/"/>
                <code value="100000155538"/>
              </coding>
              <text value="What is in this leaflet"/>
            </code>
            <text>
              <status value="additional"/><div xmlns="http://www.w3.org/1999/xhtml"><p>What is in this leaflet:</p><ol><li>What Fluenz Tetra is and what it is used for</li><li>What you need to know before you are given Fluenz Tetra</li><li>How Fluenz Tetra is given</li><li>Possible side effects</li><li>How to store Fluenz Tetra</li><li>Contents of the pack and other information</li></ol></div>
            </text>
          </section>
          <section>
            <title value="1. What 0 is and what it is used for"/>
            <code>
              <coding>
                <system value="https://spor.ema.europa.eu/rmswi/"/>
                <code value="100000155538"/>
              </coding>
              <text value="1. What 0 is and what it is used for"/>
            </code>
            <text>
              <status value="additional"/><div xmlns="http://www.w3.org/1999/xhtml"><p>Fluenz Tetra is a vaccine to prevent influenza (flu). It is used in children and adolescents 24 months to less than 18 years of age. Fluenz Tetra will help to protect against the four virus strains contained in the vaccine, and other strains closely related to them.</p><p><strong>How Fluenz Tetra works</strong></p><p>When a person is given the vaccine, the immune system (the body’s natural defence system) will produce its own protection against the influenza virus. None of the ingredients in the vaccine can cause the flu. Fluenz Tetra vaccine viruses are grown in chicken eggs. Each year the vaccine targets four strains of influenza, following the annual recommendations by the World Health Organisation.</p></div>
            </text>
          </section>
          <section>
            <title value="2. What you need to know before you take 0"/>
            <code>
              <coding>
                <system value="https://spor.ema.europa.eu/rmswi/"/>
                <code value="100000155538"/>
              </coding>
              <text value="2. What you need to know before you take 0"/>
            </code>
            <text>
              <status value="additional"/><div xmlns="http://www.w3.org/1999/xhtml"><p><strong>You will not be given Fluenz Tetra:</strong></p><ul><li><strong>if you are allergic</strong> to gentamicin, gelatin or any of the other ingredients of this vaccine (listed in section 6 “Contents of the pack and other information”).</li><li>if you have ever had a severe allergic reaction to eggs or egg proteins. For signs of allergic reactions, see section 4 “Possible side effects”.</li><li>if you have a blood disorder or a cancer that affects the immune system.</li><li>if you have been told by your doctor that you have a weakened immune system as a result of a disease, medicine or other treatment.</li><li>if you are already taking acetylsalicylic acid (a substance present in many medicines used to relieve pain and lower fever). This is because of the risk of a very rare but serious disease (Reye’s syndrome). If any of these apply, <strong>tell your doctor, nurse or pharmacist.</strong></li></ul><p><strong>Warnings and precautions</strong></p><p><strong>Talk to your doctor, nurse or pharmacist before vaccination:</strong></p><ul><li>if the child is less than 24 months of age. Children less than 24 months of age should not receive this vaccine because of the risk of side effects.</li><li>if you have severe asthma or are currently wheezing.</li><li>if you are in close contact with someone with a severely weakened immune system (for example, a bone marrow transplant patient needing isolation).</li></ul><p>If any of these apply, tell your doctor, nurse or pharmacist before vaccination. He or she will decide if Fluenz Tetra is suitable for you.</p><p><strong>Other medicines, other vaccines and Fluenz Tetra</strong></p><p>Tell your doctor, nurse or pharmacist if the person being vaccinated is taking, has recently taken or might take any other medicines, including medicines that do not require a prescription.</p><ul><li>Do not give acetylsalicylic acid (a substance present in many medicines used to relieve pain and lower fever) to children for 4 weeks after vaccination with Fluenz Tetra unless your doctor, nurse or pharmacist tells you otherwise. This is because of the risk of Reye’s syndrome, a very rare but serious disease that can affect the brain and liver.</li><li>It is recommended that Fluenz Tetra is not given at the same time as influenza-specific antiviral medicines, such as oseltamivir and zanamivir. This is because the vaccine may work less effectively.</li></ul><p>Your doctor, nurse or pharmacist will decide if Fluenz Tetra can be given at the same time as other vaccines.</p><p><strong>Pregnancy and breast-feeding</strong></p><ul><li>If you are pregnant, think you may be pregnant, plan to become pregnant soon or are breast-feeding, tell your doctor, nurse or pharmacist before receiving this vaccine. Fluenz Tetra is not recommended for women who are pregnant or are breast-feeding.</li></ul><p><strong>Driving and using machines</strong></p><ul><li>Fluenz Tetra has no or negligible influence on the ability to drive and use machines.</li></ul></div>
            </text>
          </section>
          <section>
            <title value="3. How to take 0"/>
            <code>
              <coding>
                <system value="https://spor.ema.europa.eu/rmswi/"/>
                <code value="100000155538"/>
              </coding>
              <text value="3. How to take 0"/>
            </code>
            <text>
              <status value="additional"/><div xmlns="http://www.w3.org/1999/xhtml"><p><strong>Fluenz Tetra will be administered under the supervision of a doctor, nurse or pharmacist.</strong></p><p>Fluenz Tetra must only be used as a nasal spray.</p><p><strong>Fluenz Tetra must not be injected.</strong></p><p>Fluenz Tetra will be given as a spray in each nostril. You can breathe normally while you are given Fluenz Tetra. You do not need to actively inhale or sniff.</p><p><strong>Dosage</strong></p><p>The recommended dose for children and adolescents is 0.2 ml Fluenz Tetra, administered as 0.1 ml in each nostril. Children who have not previously had an influenza vaccine will receive a second, follow-up dose after an interval of at least 4 weeks. Follow your doctor, nurse or pharmacist’s instructions about if and when your child should return for the second dose.</p><p>If you have any further questions on this vaccine, ask your doctor, nurse or pharmacist.</p></div>
            </text>
          </section>
          <section>
            <title value="4. Possible side effects"/>
            <code>
              <coding>
                <system value="https://spor.ema.europa.eu/rmswi/"/>
                <code value="100000155538"/>
              </coding>
              <text value="4. Possible side effects"/>
            </code>
            <text>
              <status value="additional"/><div xmlns="http://www.w3.org/1999/xhtml"><p>Like all medicines, this vaccine can cause side effects, although not everybody gets them. In clinical studies with the vaccine, most side effects were mild in nature and short term.</p><p>Ask your doctor, nurse or pharmacist if you want more information about possible side effects from Fluenz Tetra.</p><p><strong>Some side effects may be serious</strong></p><p><strong>Very rare</strong>(may affect up to 1 in 10,000 people):</p><ul><li>severe allergic reaction: signs of a severe allergic reaction may include shortness of breath and swelling of the face or tongue.</li></ul><p>Tell your doctor straight away or seek urgent medical care if you experience any of the effects above.</p><p><strong>Other possible side effects of Fluenz Tetra</strong><em>Very common</em>(may affect more than 1 in 10 people):</p><ul><li>runny or stuffy nose</li><li>reduced appetite</li><li>weakness</li></ul><p><em>Common</em>(may affect up to 1 in 10 people):</p><ul><li>fever</li><li>muscle aches</li><li>headache</li></ul><p><em>Uncommon</em>(may affect up to 1 in 100 people):</p><ul><li>rash</li><li>nose bleed</li><li>allergic reactions</li></ul><p><strong>Reporting of side effects</strong></p><p>If you get any side effects, talk to your doctor, nurse or pharmacist. This includes any possible side effects not listed in this leaflet. You can also report side effects directly via the national reporting system listed in Appendix V. By reporting side effects you can help provide more information on the safety of this medicine.</p></div>
            </text>
          </section>
          <section>
            <title value="5. How to store 0"/>
            <code>
              <coding>
                <system value="https://spor.ema.europa.eu/rmswi/"/>
                <code value="100000155538"/>
              </coding>
              <text value="5. How to store 0"/>
            </code>
            <text>
              <status value="additional"/><div xmlns="http://www.w3.org/1999/xhtml"><p>Keep this vaccine out of the sight and reach of children.</p><p>Do not use this vaccine after the expiry date which is stated on the applicator label after the letters EXP.</p><p>Store in a refrigerator (2°C to 8°C). Do not freeze.</p><p>Keep the nasal applicator in the outer carton in order to protect from light.</p><p>Before use, the vaccine may be taken out of the refrigerator once for a maximum period of 12 hours at a temperature not above 25°C. If the vaccine has not been used after this 12 hour period, it should be discarded.</p><p>Do not throw away any medicines via wastewater or household waste. Ask your pharmacist how to throw away medicines you no longer use. These measures will help protect the environment.</p></div>
            </text>
          </section>
          <section>
            <title value="6. Contents of the pack and other information"/>
            <code>
              <coding>
                <system value="https://spor.ema.europa.eu/rmswi/"/>
                <code value="100000155538"/>
              </coding>
              <text value="6. Contents of the pack and other information"/>
            </code>
            <text>
              <status value="additional"/><div xmlns="http://www.w3.org/1999/xhtml"><p><strong>What Fluenz Tetra contains</strong></p><p>The active substances are:</p><p>Reassortant influenza virus<em> (live attenuated) of the following four strains*</em>:</p><table><thead><tr><th></th><th></th></tr></thead><tbody><tr><td>A/Victoria/4897/2022 (H1N1)pdm09 - like strain</td><td>E107.0±0.5 FFU<em>*</em></td></tr><tr><td>(A/Norway/31694/2022, MEDI 369815)</td><td></td></tr><tr><td>A/Darwin/9/2021 (H3N2) - like strain</td><td>E107.0±0.5 FFU<em>*</em></td></tr><tr><td>(A/Norway/16606/2021, MEDI 355293)</td><td></td></tr><tr><td>B/Austria/1359417/2021 - like strain</td><td>E107.0±0.5 FFU<em>*</em></td></tr><tr><td>(B/Austria/1359417/2021, MEDI 355292)</td><td></td></tr><tr><td>B/Phuket/3073/2013 - like strain</td><td>E107.0±0.5 FFU<em>*</em></td></tr><tr><td>(B/Phuket/3073/2013, MEDI 306444)</td><td></td></tr><tr><td>..................................................................................................................</td><td>per 0.2 ml dose</td></tr></tbody></table><p>* propagated in fertilised hens&#39; eggs from healthy chicken flocks.<strong> produced in VERO cells by reverse genetic technology. This product contains genetically modified organisms (GMOs).*</strong> fluorescent focus units.</p><p>This vaccine complies with the WHO (World Health Organisation) recommendations (Northern Hemisphere) and EU decision for the 2023/2024 season.</p><p>The other ingredients are sucrose, dipotassium phosphate, potassium dihydrogen phosphate, gelatin (porcine, Type A), arginine hydrochloride, monosodium glutamate monohydrate and water for injections.</p><p><strong>What Fluenz Tetra looks like and contents of the pack</strong></p><p>This vaccine is presented as a nasal spray suspension in a single-use nasal applicator (0.2 ml) in a pack size of 1 and 10. Not all pack sizes may be available in your country.</p><p>The suspension is colourless to pale yellow, clear to slightly cloudy. Small white particles may be present.</p></div>
            </text>
          </section>
        </section>
      </Composition>
    </resource>
  </entry>
  <entry>
    <fullUrl value="http://hl7.eu/fhir/ig/gravitate-health/Ingredient/ingredient-for-vaxigriptetra-avictoria48972022"/>
    <resource>
      <Ingredient>
        <id value="ingredient-for-vaxigriptetra-avictoria48972022"/>
        <meta>
          <profile value="http://hl7.org/fhir/uv/emedicinal-product-info/StructureDefinition/Ingredient-uv-epi"/>
        </meta>
        <text>
          <status value="generated"/><div xmlns="http://www.w3.org/1999/xhtml"><a name="Ingredient_ingredient-for-vaxigriptetra-avictoria48972022"> </a><p><b>Generated Narrative: Ingredient</b><a name="ingredient-for-vaxigriptetra-avictoria48972022"> </a><a name="hcingredient-for-vaxigriptetra-avictoria48972022"> </a></p><div style="display: inline-block; background-color: #d9e0e7; padding: 6px; margin: 4px; border: 1px solid #8da1b4; border-radius: 5px; line-height: 60%"><p style="margin-bottom: 0px">Resource Ingredient &quot;ingredient-for-vaxigriptetra-avictoria48972022&quot; </p><p style="margin-bottom: 0px">Profile: <a href="https://build.fhir.org/ig/HL7/emedicinal-product-info//StructureDefinition-Ingredient-uv-epi.html">Ingredient (ePI)</a></p></div><p><b>identifier</b>: <code>https://gsrs.ncats.nih.gov/ginas/app/beta</code>/nan (use: OFFICIAL)</p><p><b>status</b>: active</p><p><b>for</b>: </p><ul><li><a href="#ManufacturedItemDefinition_mid-635d47ee543a5a9e15fcd321ee5fe6bb">See above (ManufacturedItemDefinition/mid-635d47ee543a5a9e15fcd321ee5fe6bb)</a></li><li><a href="#MedicinalProductDefinition_mp822aeee7cf35efce0583ec39919328fb">See above (MedicinalProductDefinition/mp822aeee7cf35efce0583ec39919328fb)</a></li><li><a href="#AdministrableProductDefinition_ap-635d47ee543a5a9e15fcd321ee5fe6bb">See above (AdministrableProductDefinition/ap-635d47ee543a5a9e15fcd321ee5fe6bb)</a></li></ul><p><b>role</b>: Active <span style="background: LightGoldenRodYellow; margin: 4px; border: 1px solid khaki"> (rmswi#100000072072)</span></p><blockquote><p><b>substance</b></p><h3>Codes</h3><table class="grid"><tr><td style="display: none">-</td><td><b>Concept</b></td></tr><tr><td style="display: none">*</td><td>A/Victoria/4897/2022 <span style="background: LightGoldenRodYellow; margin: 4px; border: 1px solid khaki"> (beta#nan)</span></td></tr></table><h3>Strengths</h3><table class="grid"><tr><td style="display: none">-</td><td><b>Presentation[x]</b></td><td><b>Basis</b></td></tr><tr><td style="display: none">*</td><td>0 FFU<span style="background: LightGoldenRodYellow"> (Details: UCUM code FFU = 'FFU')</span></td><td>active ingredient - basis of strength <span style="background: LightGoldenRodYellow; margin: 4px; border: 1px solid khaki"> (<a href="http://terminology.hl7.org/5.3.0/CodeSystem-v3-RoleClass.html">RoleClass</a>#ACTIB)</span></td></tr></table></blockquote></div>
        </text>
        <identifier>
          <use value="official"/>
          <system value="https://gsrs.ncats.nih.gov/ginas/app/beta"/>
          <value value="nan"/>
        </identifier>
        <status value="active"/>
        <for>
          <reference value="ManufacturedItemDefinition/mid-635d47ee543a5a9e15fcd321ee5fe6bb"/>
        </for>
        <for>
          <reference value="MedicinalProductDefinition/mp822aeee7cf35efce0583ec39919328fb"/>
        </for>
        <for>
          <reference value="AdministrableProductDefinition/ap-635d47ee543a5a9e15fcd321ee5fe6bb"/>
        </for>
        <role>
          <coding>
            <system value="https://spor.ema.europa.eu/rmswi"/>
            <code value="100000072072"/>
            <display value="Active"/>
          </coding>
        </role>
        <substance>
          <code>
            <concept>
              <coding>
                <system value="https://gsrs.ncats.nih.gov/ginas/app/beta"/>
                <code value="nan"/>
                <display value="A/Victoria/4897/2022"/>
              </coding>
            </concept>
          </code>
          <strength>
            <presentationQuantity>
              <value value="0"/>
              <system value="http://unitsofmeasure.org"/>
              <code value="FFU"/>
            </presentationQuantity>
            <basis>
              <coding>
                <system value="http://terminology.hl7.org/CodeSystem/v3-RoleClass"/>
                <code value="ACTIB"/>
                <display value="active ingredient - basis of strength"/>
              </coding>
            </basis>
          </strength>
        </substance>
      </Ingredient>
    </resource>
  </entry>
  <entry>
    <fullUrl value="http://hl7.eu/fhir/ig/gravitate-health/Ingredient/ingredient-for-vaxigriptetra-adarwin92021h3n2"/>
    <resource>
      <Ingredient>
        <id value="ingredient-for-vaxigriptetra-adarwin92021h3n2"/>
        <meta>
          <profile value="http://hl7.org/fhir/uv/emedicinal-product-info/StructureDefinition/Ingredient-uv-epi"/>
        </meta>
        <text>
          <status value="generated"/><div xmlns="http://www.w3.org/1999/xhtml"><a name="Ingredient_ingredient-for-vaxigriptetra-adarwin92021h3n2"> </a><p><b>Generated Narrative: Ingredient</b><a name="ingredient-for-vaxigriptetra-adarwin92021h3n2"> </a><a name="hcingredient-for-vaxigriptetra-adarwin92021h3n2"> </a></p><div style="display: inline-block; background-color: #d9e0e7; padding: 6px; margin: 4px; border: 1px solid #8da1b4; border-radius: 5px; line-height: 60%"><p style="margin-bottom: 0px">Resource Ingredient &quot;ingredient-for-vaxigriptetra-adarwin92021h3n2&quot; </p><p style="margin-bottom: 0px">Profile: <a href="https://build.fhir.org/ig/HL7/emedicinal-product-info//StructureDefinition-Ingredient-uv-epi.html">Ingredient (ePI)</a></p></div><p><b>identifier</b>: <code>https://gsrs.ncats.nih.gov/ginas/app/beta</code>/nan (use: OFFICIAL)</p><p><b>status</b>: active</p><p><b>for</b>: </p><ul><li><a href="#ManufacturedItemDefinition_mid-635d47ee543a5a9e15fcd321ee5fe6bb">See above (ManufacturedItemDefinition/mid-635d47ee543a5a9e15fcd321ee5fe6bb)</a></li><li><a href="#MedicinalProductDefinition_mp822aeee7cf35efce0583ec39919328fb">See above (MedicinalProductDefinition/mp822aeee7cf35efce0583ec39919328fb)</a></li><li><a href="#AdministrableProductDefinition_ap-635d47ee543a5a9e15fcd321ee5fe6bb">See above (AdministrableProductDefinition/ap-635d47ee543a5a9e15fcd321ee5fe6bb)</a></li></ul><p><b>role</b>: Active <span style="background: LightGoldenRodYellow; margin: 4px; border: 1px solid khaki"> (rmswi#100000072072)</span></p><blockquote><p><b>substance</b></p><h3>Codes</h3><table class="grid"><tr><td style="display: none">-</td><td><b>Concept</b></td></tr><tr><td style="display: none">*</td><td>A/Darwin/9/2021 (H3N2) <span style="background: LightGoldenRodYellow; margin: 4px; border: 1px solid khaki"> (beta#nan)</span></td></tr></table><h3>Strengths</h3><table class="grid"><tr><td style="display: none">-</td><td><b>Presentation[x]</b></td><td><b>Basis</b></td></tr><tr><td style="display: none">*</td><td>0 FFU<span style="background: LightGoldenRodYellow"> (Details: UCUM code FFU = 'FFU')</span></td><td>active ingredient - basis of strength <span style="background: LightGoldenRodYellow; margin: 4px; border: 1px solid khaki"> (<a href="http://terminology.hl7.org/5.3.0/CodeSystem-v3-RoleClass.html">RoleClass</a>#ACTIB)</span></td></tr></table></blockquote></div>
        </text>
        <identifier>
          <use value="official"/>
          <system value="https://gsrs.ncats.nih.gov/ginas/app/beta"/>
          <value value="nan"/>
        </identifier>
        <status value="active"/>
        <for>
          <reference value="ManufacturedItemDefinition/mid-635d47ee543a5a9e15fcd321ee5fe6bb"/>
        </for>
        <for>
          <reference value="MedicinalProductDefinition/mp822aeee7cf35efce0583ec39919328fb"/>
        </for>
        <for>
          <reference value="AdministrableProductDefinition/ap-635d47ee543a5a9e15fcd321ee5fe6bb"/>
        </for>
        <role>
          <coding>
            <system value="https://spor.ema.europa.eu/rmswi"/>
            <code value="100000072072"/>
            <display value="Active"/>
          </coding>
        </role>
        <substance>
          <code>
            <concept>
              <coding>
                <system value="https://gsrs.ncats.nih.gov/ginas/app/beta"/>
                <code value="nan"/>
                <display value="A/Darwin/9/2021 (H3N2)"/>
              </coding>
            </concept>
          </code>
          <strength>
            <presentationQuantity>
              <value value="0"/>
              <system value="http://unitsofmeasure.org"/>
              <code value="FFU"/>
            </presentationQuantity>
            <basis>
              <coding>
                <system value="http://terminology.hl7.org/CodeSystem/v3-RoleClass"/>
                <code value="ACTIB"/>
                <display value="active ingredient - basis of strength"/>
              </coding>
            </basis>
          </strength>
        </substance>
      </Ingredient>
    </resource>
  </entry>
  <entry>
    <fullUrl value="http://hl7.eu/fhir/ig/gravitate-health/Ingredient/ingredient-for-vaxigriptetra-baustria13594172021"/>
    <resource>
      <Ingredient>
        <id value="ingredient-for-vaxigriptetra-baustria13594172021"/>
        <meta>
          <profile value="http://hl7.org/fhir/uv/emedicinal-product-info/StructureDefinition/Ingredient-uv-epi"/>
        </meta>
        <text>
          <status value="generated"/><div xmlns="http://www.w3.org/1999/xhtml"><a name="Ingredient_ingredient-for-vaxigriptetra-baustria13594172021"> </a><p><b>Generated Narrative: Ingredient</b><a name="ingredient-for-vaxigriptetra-baustria13594172021"> </a><a name="hcingredient-for-vaxigriptetra-baustria13594172021"> </a></p><div style="display: inline-block; background-color: #d9e0e7; padding: 6px; margin: 4px; border: 1px solid #8da1b4; border-radius: 5px; line-height: 60%"><p style="margin-bottom: 0px">Resource Ingredient &quot;ingredient-for-vaxigriptetra-baustria13594172021&quot; </p><p style="margin-bottom: 0px">Profile: <a href="https://build.fhir.org/ig/HL7/emedicinal-product-info//StructureDefinition-Ingredient-uv-epi.html">Ingredient (ePI)</a></p></div><p><b>identifier</b>: <code>https://gsrs.ncats.nih.gov/ginas/app/beta</code>/nan (use: OFFICIAL)</p><p><b>status</b>: active</p><p><b>for</b>: </p><ul><li><a href="#ManufacturedItemDefinition_mid-635d47ee543a5a9e15fcd321ee5fe6bb">See above (ManufacturedItemDefinition/mid-635d47ee543a5a9e15fcd321ee5fe6bb)</a></li><li><a href="#MedicinalProductDefinition_mp822aeee7cf35efce0583ec39919328fb">See above (MedicinalProductDefinition/mp822aeee7cf35efce0583ec39919328fb)</a></li><li><a href="#AdministrableProductDefinition_ap-635d47ee543a5a9e15fcd321ee5fe6bb">See above (AdministrableProductDefinition/ap-635d47ee543a5a9e15fcd321ee5fe6bb)</a></li></ul><p><b>role</b>: Active <span style="background: LightGoldenRodYellow; margin: 4px; border: 1px solid khaki"> (rmswi#100000072072)</span></p><blockquote><p><b>substance</b></p><h3>Codes</h3><table class="grid"><tr><td style="display: none">-</td><td><b>Concept</b></td></tr><tr><td style="display: none">*</td><td>B/Austria/1359417/2021 <span style="background: LightGoldenRodYellow; margin: 4px; border: 1px solid khaki"> (beta#nan)</span></td></tr></table><h3>Strengths</h3><table class="grid"><tr><td style="display: none">-</td><td><b>Presentation[x]</b></td><td><b>Basis</b></td></tr><tr><td style="display: none">*</td><td>0 FFU<span style="background: LightGoldenRodYellow"> (Details: UCUM code FFU = 'FFU')</span></td><td>active ingredient - basis of strength <span style="background: LightGoldenRodYellow; margin: 4px; border: 1px solid khaki"> (<a href="http://terminology.hl7.org/5.3.0/CodeSystem-v3-RoleClass.html">RoleClass</a>#ACTIB)</span></td></tr></table></blockquote></div>
        </text>
        <identifier>
          <use value="official"/>
          <system value="https://gsrs.ncats.nih.gov/ginas/app/beta"/>
          <value value="nan"/>
        </identifier>
        <status value="active"/>
        <for>
          <reference value="ManufacturedItemDefinition/mid-635d47ee543a5a9e15fcd321ee5fe6bb"/>
        </for>
        <for>
          <reference value="MedicinalProductDefinition/mp822aeee7cf35efce0583ec39919328fb"/>
        </for>
        <for>
          <reference value="AdministrableProductDefinition/ap-635d47ee543a5a9e15fcd321ee5fe6bb"/>
        </for>
        <role>
          <coding>
            <system value="https://spor.ema.europa.eu/rmswi"/>
            <code value="100000072072"/>
            <display value="Active"/>
          </coding>
        </role>
        <substance>
          <code>
            <concept>
              <coding>
                <system value="https://gsrs.ncats.nih.gov/ginas/app/beta"/>
                <code value="nan"/>
                <display value="B/Austria/1359417/2021"/>
              </coding>
            </concept>
          </code>
          <strength>
            <presentationQuantity>
              <value value="0"/>
              <system value="http://unitsofmeasure.org"/>
              <code value="FFU"/>
            </presentationQuantity>
            <basis>
              <coding>
                <system value="http://terminology.hl7.org/CodeSystem/v3-RoleClass"/>
                <code value="ACTIB"/>
                <display value="active ingredient - basis of strength"/>
              </coding>
            </basis>
          </strength>
        </substance>
      </Ingredient>
    </resource>
  </entry>
  <entry>
    <fullUrl value="http://hl7.eu/fhir/ig/gravitate-health/Ingredient/ingredient-for-vaxigriptetra-bphuket30732013"/>
    <resource>
      <Ingredient>
        <id value="ingredient-for-vaxigriptetra-bphuket30732013"/>
        <meta>
          <profile value="http://hl7.org/fhir/uv/emedicinal-product-info/StructureDefinition/Ingredient-uv-epi"/>
        </meta>
        <text>
          <status value="generated"/><div xmlns="http://www.w3.org/1999/xhtml"><a name="Ingredient_ingredient-for-vaxigriptetra-bphuket30732013"> </a><p><b>Generated Narrative: Ingredient</b><a name="ingredient-for-vaxigriptetra-bphuket30732013"> </a><a name="hcingredient-for-vaxigriptetra-bphuket30732013"> </a></p><div style="display: inline-block; background-color: #d9e0e7; padding: 6px; margin: 4px; border: 1px solid #8da1b4; border-radius: 5px; line-height: 60%"><p style="margin-bottom: 0px">Resource Ingredient &quot;ingredient-for-vaxigriptetra-bphuket30732013&quot; </p><p style="margin-bottom: 0px">Profile: <a href="https://build.fhir.org/ig/HL7/emedicinal-product-info//StructureDefinition-Ingredient-uv-epi.html">Ingredient (ePI)</a></p></div><p><b>identifier</b>: <code>https://gsrs.ncats.nih.gov/ginas/app/beta</code>/nan (use: OFFICIAL)</p><p><b>status</b>: active</p><p><b>for</b>: </p><ul><li><a href="#ManufacturedItemDefinition_mid-635d47ee543a5a9e15fcd321ee5fe6bb">See above (ManufacturedItemDefinition/mid-635d47ee543a5a9e15fcd321ee5fe6bb)</a></li><li><a href="#MedicinalProductDefinition_mp822aeee7cf35efce0583ec39919328fb">See above (MedicinalProductDefinition/mp822aeee7cf35efce0583ec39919328fb)</a></li><li><a href="#AdministrableProductDefinition_ap-635d47ee543a5a9e15fcd321ee5fe6bb">See above (AdministrableProductDefinition/ap-635d47ee543a5a9e15fcd321ee5fe6bb)</a></li></ul><p><b>role</b>: Active <span style="background: LightGoldenRodYellow; margin: 4px; border: 1px solid khaki"> (rmswi#100000072072)</span></p><blockquote><p><b>substance</b></p><h3>Codes</h3><table class="grid"><tr><td style="display: none">-</td><td><b>Concept</b></td></tr><tr><td style="display: none">*</td><td>B/Phuket/3073/2013 - <span style="background: LightGoldenRodYellow; margin: 4px; border: 1px solid khaki"> (beta#nan)</span></td></tr></table><h3>Strengths</h3><table class="grid"><tr><td style="display: none">-</td><td><b>Presentation[x]</b></td><td><b>Basis</b></td></tr><tr><td style="display: none">*</td><td>0 FFU<span style="background: LightGoldenRodYellow"> (Details: UCUM code FFU = 'FFU')</span></td><td>active ingredient - basis of strength <span style="background: LightGoldenRodYellow; margin: 4px; border: 1px solid khaki"> (<a href="http://terminology.hl7.org/5.3.0/CodeSystem-v3-RoleClass.html">RoleClass</a>#ACTIB)</span></td></tr></table></blockquote></div>
        </text>
        <identifier>
          <use value="official"/>
          <system value="https://gsrs.ncats.nih.gov/ginas/app/beta"/>
          <value value="nan"/>
        </identifier>
        <status value="active"/>
        <for>
          <reference value="ManufacturedItemDefinition/mid-635d47ee543a5a9e15fcd321ee5fe6bb"/>
        </for>
        <for>
          <reference value="MedicinalProductDefinition/mp822aeee7cf35efce0583ec39919328fb"/>
        </for>
        <for>
          <reference value="AdministrableProductDefinition/ap-635d47ee543a5a9e15fcd321ee5fe6bb"/>
        </for>
        <role>
          <coding>
            <system value="https://spor.ema.europa.eu/rmswi"/>
            <code value="100000072072"/>
            <display value="Active"/>
          </coding>
        </role>
        <substance>
          <code>
            <concept>
              <coding>
                <system value="https://gsrs.ncats.nih.gov/ginas/app/beta"/>
                <code value="nan"/>
                <display value="B/Phuket/3073/2013 -"/>
              </coding>
            </concept>
          </code>
          <strength>
            <presentationQuantity>
              <value value="0"/>
              <system value="http://unitsofmeasure.org"/>
              <code value="FFU"/>
            </presentationQuantity>
            <basis>
              <coding>
                <system value="http://terminology.hl7.org/CodeSystem/v3-RoleClass"/>
                <code value="ACTIB"/>
                <display value="active ingredient - basis of strength"/>
              </coding>
            </basis>
          </strength>
        </substance>
      </Ingredient>
    </resource>
  </entry>
  <entry>
    <fullUrl value="http://hl7.eu/fhir/ig/gravitate-health/Ingredient/ingredient-for-vaxigriptetra-sucrose"/>
    <resource>
      <Ingredient>
        <id value="ingredient-for-vaxigriptetra-sucrose"/>
        <meta>
          <profile value="http://hl7.org/fhir/uv/emedicinal-product-info/StructureDefinition/Ingredient-uv-epi"/>
        </meta>
        <text>
          <status value="generated"/><div xmlns="http://www.w3.org/1999/xhtml"><a name="Ingredient_ingredient-for-vaxigriptetra-sucrose"> </a><p><b>Generated Narrative: Ingredient</b><a name="ingredient-for-vaxigriptetra-sucrose"> </a><a name="hcingredient-for-vaxigriptetra-sucrose"> </a></p><div style="display: inline-block; background-color: #d9e0e7; padding: 6px; margin: 4px; border: 1px solid #8da1b4; border-radius: 5px; line-height: 60%"><p style="margin-bottom: 0px">Resource Ingredient &quot;ingredient-for-vaxigriptetra-sucrose&quot; </p><p style="margin-bottom: 0px">Profile: <a href="https://build.fhir.org/ig/HL7/emedicinal-product-info//StructureDefinition-Ingredient-uv-epi.html">Ingredient (ePI)</a></p></div><p><b>identifier</b>: <code>https://gsrs.ncats.nih.gov/ginas/app/beta</code>/nan (use: OFFICIAL)</p><p><b>status</b>: active</p><p><b>for</b>: </p><ul><li><a href="#ManufacturedItemDefinition_mid-635d47ee543a5a9e15fcd321ee5fe6bb">See above (ManufacturedItemDefinition/mid-635d47ee543a5a9e15fcd321ee5fe6bb)</a></li><li><a href="#MedicinalProductDefinition_mp822aeee7cf35efce0583ec39919328fb">See above (MedicinalProductDefinition/mp822aeee7cf35efce0583ec39919328fb)</a></li><li><a href="#AdministrableProductDefinition_ap-635d47ee543a5a9e15fcd321ee5fe6bb">See above (AdministrableProductDefinition/ap-635d47ee543a5a9e15fcd321ee5fe6bb)</a></li></ul><p><b>role</b>: Excipient <span style="background: LightGoldenRodYellow; margin: 4px; border: 1px solid khaki"> (rmswi#100000072082)</span></p><blockquote><p><b>substance</b></p><h3>Codes</h3><table class="grid"><tr><td style="display: none">-</td><td><b>Concept</b></td></tr><tr><td style="display: none">*</td><td>Sucrose <span style="background: LightGoldenRodYellow; margin: 4px; border: 1px solid khaki"> (beta#nan)</span></td></tr></table></blockquote></div>
        </text>
        <identifier>
          <use value="official"/>
          <system value="https://gsrs.ncats.nih.gov/ginas/app/beta"/>
          <value value="nan"/>
        </identifier>
        <status value="active"/>
        <for>
          <reference value="ManufacturedItemDefinition/mid-635d47ee543a5a9e15fcd321ee5fe6bb"/>
        </for>
        <for>
          <reference value="MedicinalProductDefinition/mp822aeee7cf35efce0583ec39919328fb"/>
        </for>
        <for>
          <reference value="AdministrableProductDefinition/ap-635d47ee543a5a9e15fcd321ee5fe6bb"/>
        </for>
        <role>
          <coding>
            <system value="https://spor.ema.europa.eu/rmswi"/>
            <code value="100000072082"/>
            <display value="Excipient"/>
          </coding>
        </role>
        <substance>
          <code>
            <concept>
              <coding>
                <system value="https://gsrs.ncats.nih.gov/ginas/app/beta"/>
                <code value="nan"/>
                <display value="Sucrose"/>
              </coding>
            </concept>
          </code>
        </substance>
      </Ingredient>
    </resource>
  </entry>
  <entry>
    <fullUrl value="http://hl7.eu/fhir/ig/gravitate-health/Ingredient/ingredient-for-vaxigriptetra-dipotassiumphosphate"/>
    <resource>
      <Ingredient>
        <id value="ingredient-for-vaxigriptetra-dipotassiumphosphate"/>
        <meta>
          <profile value="http://hl7.org/fhir/uv/emedicinal-product-info/StructureDefinition/Ingredient-uv-epi"/>
        </meta>
        <text>
          <status value="generated"/><div xmlns="http://www.w3.org/1999/xhtml"><a name="Ingredient_ingredient-for-vaxigriptetra-dipotassiumphosphate"> </a><p><b>Generated Narrative: Ingredient</b><a name="ingredient-for-vaxigriptetra-dipotassiumphosphate"> </a><a name="hcingredient-for-vaxigriptetra-dipotassiumphosphate"> </a></p><div style="display: inline-block; background-color: #d9e0e7; padding: 6px; margin: 4px; border: 1px solid #8da1b4; border-radius: 5px; line-height: 60%"><p style="margin-bottom: 0px">Resource Ingredient &quot;ingredient-for-vaxigriptetra-dipotassiumphosphate&quot; </p><p style="margin-bottom: 0px">Profile: <a href="https://build.fhir.org/ig/HL7/emedicinal-product-info//StructureDefinition-Ingredient-uv-epi.html">Ingredient (ePI)</a></p></div><p><b>identifier</b>: <code>https://gsrs.ncats.nih.gov/ginas/app/beta</code>/nan (use: OFFICIAL)</p><p><b>status</b>: active</p><p><b>for</b>: </p><ul><li><a href="#ManufacturedItemDefinition_mid-635d47ee543a5a9e15fcd321ee5fe6bb">See above (ManufacturedItemDefinition/mid-635d47ee543a5a9e15fcd321ee5fe6bb)</a></li><li><a href="#MedicinalProductDefinition_mp822aeee7cf35efce0583ec39919328fb">See above (MedicinalProductDefinition/mp822aeee7cf35efce0583ec39919328fb)</a></li><li><a href="#AdministrableProductDefinition_ap-635d47ee543a5a9e15fcd321ee5fe6bb">See above (AdministrableProductDefinition/ap-635d47ee543a5a9e15fcd321ee5fe6bb)</a></li></ul><p><b>role</b>: Excipient <span style="background: LightGoldenRodYellow; margin: 4px; border: 1px solid khaki"> (rmswi#100000072082)</span></p><blockquote><p><b>substance</b></p><h3>Codes</h3><table class="grid"><tr><td style="display: none">-</td><td><b>Concept</b></td></tr><tr><td style="display: none">*</td><td>Dipotassium phosphate <span style="background: LightGoldenRodYellow; margin: 4px; border: 1px solid khaki"> (beta#nan)</span></td></tr></table></blockquote></div>
        </text>
        <identifier>
          <use value="official"/>
          <system value="https://gsrs.ncats.nih.gov/ginas/app/beta"/>
          <value value="nan"/>
        </identifier>
        <status value="active"/>
        <for>
          <reference value="ManufacturedItemDefinition/mid-635d47ee543a5a9e15fcd321ee5fe6bb"/>
        </for>
        <for>
          <reference value="MedicinalProductDefinition/mp822aeee7cf35efce0583ec39919328fb"/>
        </for>
        <for>
          <reference value="AdministrableProductDefinition/ap-635d47ee543a5a9e15fcd321ee5fe6bb"/>
        </for>
        <role>
          <coding>
            <system value="https://spor.ema.europa.eu/rmswi"/>
            <code value="100000072082"/>
            <display value="Excipient"/>
          </coding>
        </role>
        <substance>
          <code>
            <concept>
              <coding>
                <system value="https://gsrs.ncats.nih.gov/ginas/app/beta"/>
                <code value="nan"/>
                <display value="Dipotassium phosphate"/>
              </coding>
            </concept>
          </code>
        </substance>
      </Ingredient>
    </resource>
  </entry>
  <entry>
    <fullUrl value="http://hl7.eu/fhir/ig/gravitate-health/Ingredient/ingredient-for-vaxigriptetra-potassiumdihydrogenphosphate"/>
    <resource>
      <Ingredient>
        <id value="ingredient-for-vaxigriptetra-potassiumdihydrogenphosphate"/>
        <meta>
          <profile value="http://hl7.org/fhir/uv/emedicinal-product-info/StructureDefinition/Ingredient-uv-epi"/>
        </meta>
        <text>
          <status value="generated"/><div xmlns="http://www.w3.org/1999/xhtml"><a name="Ingredient_ingredient-for-vaxigriptetra-potassiumdihydrogenphosphate"> </a><p><b>Generated Narrative: Ingredient</b><a name="ingredient-for-vaxigriptetra-potassiumdihydrogenphosphate"> </a><a name="hcingredient-for-vaxigriptetra-potassiumdihydrogenphosphate"> </a></p><div style="display: inline-block; background-color: #d9e0e7; padding: 6px; margin: 4px; border: 1px solid #8da1b4; border-radius: 5px; line-height: 60%"><p style="margin-bottom: 0px">Resource Ingredient &quot;ingredient-for-vaxigriptetra-potassiumdihydrogenphosphate&quot; </p><p style="margin-bottom: 0px">Profile: <a href="https://build.fhir.org/ig/HL7/emedicinal-product-info//StructureDefinition-Ingredient-uv-epi.html">Ingredient (ePI)</a></p></div><p><b>identifier</b>: <code>https://gsrs.ncats.nih.gov/ginas/app/beta</code>/nan (use: OFFICIAL)</p><p><b>status</b>: active</p><p><b>for</b>: </p><ul><li><a href="#ManufacturedItemDefinition_mid-635d47ee543a5a9e15fcd321ee5fe6bb">See above (ManufacturedItemDefinition/mid-635d47ee543a5a9e15fcd321ee5fe6bb)</a></li><li><a href="#MedicinalProductDefinition_mp822aeee7cf35efce0583ec39919328fb">See above (MedicinalProductDefinition/mp822aeee7cf35efce0583ec39919328fb)</a></li><li><a href="#AdministrableProductDefinition_ap-635d47ee543a5a9e15fcd321ee5fe6bb">See above (AdministrableProductDefinition/ap-635d47ee543a5a9e15fcd321ee5fe6bb)</a></li></ul><p><b>role</b>: Excipient <span style="background: LightGoldenRodYellow; margin: 4px; border: 1px solid khaki"> (rmswi#100000072082)</span></p><blockquote><p><b>substance</b></p><h3>Codes</h3><table class="grid"><tr><td style="display: none">-</td><td><b>Concept</b></td></tr><tr><td style="display: none">*</td><td>Potassium dihydrogen phosphate <span style="background: LightGoldenRodYellow; margin: 4px; border: 1px solid khaki"> (beta#nan)</span></td></tr></table></blockquote></div>
        </text>
        <identifier>
          <use value="official"/>
          <system value="https://gsrs.ncats.nih.gov/ginas/app/beta"/>
          <value value="nan"/>
        </identifier>
        <status value="active"/>
        <for>
          <reference value="ManufacturedItemDefinition/mid-635d47ee543a5a9e15fcd321ee5fe6bb"/>
        </for>
        <for>
          <reference value="MedicinalProductDefinition/mp822aeee7cf35efce0583ec39919328fb"/>
        </for>
        <for>
          <reference value="AdministrableProductDefinition/ap-635d47ee543a5a9e15fcd321ee5fe6bb"/>
        </for>
        <role>
          <coding>
            <system value="https://spor.ema.europa.eu/rmswi"/>
            <code value="100000072082"/>
            <display value="Excipient"/>
          </coding>
        </role>
        <substance>
          <code>
            <concept>
              <coding>
                <system value="https://gsrs.ncats.nih.gov/ginas/app/beta"/>
                <code value="nan"/>
                <display value="Potassium dihydrogen phosphate"/>
              </coding>
            </concept>
          </code>
        </substance>
      </Ingredient>
    </resource>
  </entry>
  <entry>
    <fullUrl value="http://hl7.eu/fhir/ig/gravitate-health/Ingredient/ingredient-for-vaxigriptetra-gelatinporcinetypea"/>
    <resource>
      <Ingredient>
        <id value="ingredient-for-vaxigriptetra-gelatinporcinetypea"/>
        <meta>
          <profile value="http://hl7.org/fhir/uv/emedicinal-product-info/StructureDefinition/Ingredient-uv-epi"/>
        </meta>
        <text>
          <status value="generated"/><div xmlns="http://www.w3.org/1999/xhtml"><a name="Ingredient_ingredient-for-vaxigriptetra-gelatinporcinetypea"> </a><p><b>Generated Narrative: Ingredient</b><a name="ingredient-for-vaxigriptetra-gelatinporcinetypea"> </a><a name="hcingredient-for-vaxigriptetra-gelatinporcinetypea"> </a></p><div style="display: inline-block; background-color: #d9e0e7; padding: 6px; margin: 4px; border: 1px solid #8da1b4; border-radius: 5px; line-height: 60%"><p style="margin-bottom: 0px">Resource Ingredient &quot;ingredient-for-vaxigriptetra-gelatinporcinetypea&quot; </p><p style="margin-bottom: 0px">Profile: <a href="https://build.fhir.org/ig/HL7/emedicinal-product-info//StructureDefinition-Ingredient-uv-epi.html">Ingredient (ePI)</a></p></div><p><b>identifier</b>: <code>https://gsrs.ncats.nih.gov/ginas/app/beta</code>/nan (use: OFFICIAL)</p><p><b>status</b>: active</p><p><b>for</b>: </p><ul><li><a href="#ManufacturedItemDefinition_mid-635d47ee543a5a9e15fcd321ee5fe6bb">See above (ManufacturedItemDefinition/mid-635d47ee543a5a9e15fcd321ee5fe6bb)</a></li><li><a href="#MedicinalProductDefinition_mp822aeee7cf35efce0583ec39919328fb">See above (MedicinalProductDefinition/mp822aeee7cf35efce0583ec39919328fb)</a></li><li><a href="#AdministrableProductDefinition_ap-635d47ee543a5a9e15fcd321ee5fe6bb">See above (AdministrableProductDefinition/ap-635d47ee543a5a9e15fcd321ee5fe6bb)</a></li></ul><p><b>role</b>: Excipient <span style="background: LightGoldenRodYellow; margin: 4px; border: 1px solid khaki"> (rmswi#100000072082)</span></p><blockquote><p><b>substance</b></p><h3>Codes</h3><table class="grid"><tr><td style="display: none">-</td><td><b>Concept</b></td></tr><tr><td style="display: none">*</td><td>Gelatin (porcine, Type A) <span style="background: LightGoldenRodYellow; margin: 4px; border: 1px solid khaki"> (beta#nan)</span></td></tr></table></blockquote></div>
        </text>
        <identifier>
          <use value="official"/>
          <system value="https://gsrs.ncats.nih.gov/ginas/app/beta"/>
          <value value="nan"/>
        </identifier>
        <status value="active"/>
        <for>
          <reference value="ManufacturedItemDefinition/mid-635d47ee543a5a9e15fcd321ee5fe6bb"/>
        </for>
        <for>
          <reference value="MedicinalProductDefinition/mp822aeee7cf35efce0583ec39919328fb"/>
        </for>
        <for>
          <reference value="AdministrableProductDefinition/ap-635d47ee543a5a9e15fcd321ee5fe6bb"/>
        </for>
        <role>
          <coding>
            <system value="https://spor.ema.europa.eu/rmswi"/>
            <code value="100000072082"/>
            <display value="Excipient"/>
          </coding>
        </role>
        <substance>
          <code>
            <concept>
              <coding>
                <system value="https://gsrs.ncats.nih.gov/ginas/app/beta"/>
                <code value="nan"/>
                <display value="Gelatin (porcine, Type A)"/>
              </coding>
            </concept>
          </code>
        </substance>
      </Ingredient>
    </resource>
  </entry>
  <entry>
    <fullUrl value="http://hl7.eu/fhir/ig/gravitate-health/Ingredient/ingredient-for-vaxigriptetra-argininehydrochloride"/>
    <resource>
      <Ingredient>
        <id value="ingredient-for-vaxigriptetra-argininehydrochloride"/>
        <meta>
          <profile value="http://hl7.org/fhir/uv/emedicinal-product-info/StructureDefinition/Ingredient-uv-epi"/>
        </meta>
        <text>
          <status value="generated"/><div xmlns="http://www.w3.org/1999/xhtml"><a name="Ingredient_ingredient-for-vaxigriptetra-argininehydrochloride"> </a><p><b>Generated Narrative: Ingredient</b><a name="ingredient-for-vaxigriptetra-argininehydrochloride"> </a><a name="hcingredient-for-vaxigriptetra-argininehydrochloride"> </a></p><div style="display: inline-block; background-color: #d9e0e7; padding: 6px; margin: 4px; border: 1px solid #8da1b4; border-radius: 5px; line-height: 60%"><p style="margin-bottom: 0px">Resource Ingredient &quot;ingredient-for-vaxigriptetra-argininehydrochloride&quot; </p><p style="margin-bottom: 0px">Profile: <a href="https://build.fhir.org/ig/HL7/emedicinal-product-info//StructureDefinition-Ingredient-uv-epi.html">Ingredient (ePI)</a></p></div><p><b>identifier</b>: <code>https://gsrs.ncats.nih.gov/ginas/app/beta</code>/nan (use: OFFICIAL)</p><p><b>status</b>: active</p><p><b>for</b>: </p><ul><li><a href="#ManufacturedItemDefinition_mid-635d47ee543a5a9e15fcd321ee5fe6bb">See above (ManufacturedItemDefinition/mid-635d47ee543a5a9e15fcd321ee5fe6bb)</a></li><li><a href="#MedicinalProductDefinition_mp822aeee7cf35efce0583ec39919328fb">See above (MedicinalProductDefinition/mp822aeee7cf35efce0583ec39919328fb)</a></li><li><a href="#AdministrableProductDefinition_ap-635d47ee543a5a9e15fcd321ee5fe6bb">See above (AdministrableProductDefinition/ap-635d47ee543a5a9e15fcd321ee5fe6bb)</a></li></ul><p><b>role</b>: Excipient <span style="background: LightGoldenRodYellow; margin: 4px; border: 1px solid khaki"> (rmswi#100000072082)</span></p><blockquote><p><b>substance</b></p><h3>Codes</h3><table class="grid"><tr><td style="display: none">-</td><td><b>Concept</b></td></tr><tr><td style="display: none">*</td><td>Arginine hydrochloride <span style="background: LightGoldenRodYellow; margin: 4px; border: 1px solid khaki"> (beta#nan)</span></td></tr></table></blockquote></div>
        </text>
        <identifier>
          <use value="official"/>
          <system value="https://gsrs.ncats.nih.gov/ginas/app/beta"/>
          <value value="nan"/>
        </identifier>
        <status value="active"/>
        <for>
          <reference value="ManufacturedItemDefinition/mid-635d47ee543a5a9e15fcd321ee5fe6bb"/>
        </for>
        <for>
          <reference value="MedicinalProductDefinition/mp822aeee7cf35efce0583ec39919328fb"/>
        </for>
        <for>
          <reference value="AdministrableProductDefinition/ap-635d47ee543a5a9e15fcd321ee5fe6bb"/>
        </for>
        <role>
          <coding>
            <system value="https://spor.ema.europa.eu/rmswi"/>
            <code value="100000072082"/>
            <display value="Excipient"/>
          </coding>
        </role>
        <substance>
          <code>
            <concept>
              <coding>
                <system value="https://gsrs.ncats.nih.gov/ginas/app/beta"/>
                <code value="nan"/>
                <display value="Arginine hydrochloride"/>
              </coding>
            </concept>
          </code>
        </substance>
      </Ingredient>
    </resource>
  </entry>
  <entry>
    <fullUrl value="http://hl7.eu/fhir/ig/gravitate-health/Ingredient/ingredient-for-vaxigriptetra-monosodiumglutamatemonohydrate"/>
    <resource>
      <Ingredient>
        <id value="ingredient-for-vaxigriptetra-monosodiumglutamatemonohydrate"/>
        <meta>
          <profile value="http://hl7.org/fhir/uv/emedicinal-product-info/StructureDefinition/Ingredient-uv-epi"/>
        </meta>
        <text>
          <status value="generated"/><div xmlns="http://www.w3.org/1999/xhtml"><a name="Ingredient_ingredient-for-vaxigriptetra-monosodiumglutamatemonohydrate"> </a><p><b>Generated Narrative: Ingredient</b><a name="ingredient-for-vaxigriptetra-monosodiumglutamatemonohydrate"> </a><a name="hcingredient-for-vaxigriptetra-monosodiumglutamatemonohydrate"> </a></p><div style="display: inline-block; background-color: #d9e0e7; padding: 6px; margin: 4px; border: 1px solid #8da1b4; border-radius: 5px; line-height: 60%"><p style="margin-bottom: 0px">Resource Ingredient &quot;ingredient-for-vaxigriptetra-monosodiumglutamatemonohydrate&quot; </p><p style="margin-bottom: 0px">Profile: <a href="https://build.fhir.org/ig/HL7/emedicinal-product-info//StructureDefinition-Ingredient-uv-epi.html">Ingredient (ePI)</a></p></div><p><b>identifier</b>: <code>https://gsrs.ncats.nih.gov/ginas/app/beta</code>/nan (use: OFFICIAL)</p><p><b>status</b>: active</p><p><b>for</b>: </p><ul><li><a href="#ManufacturedItemDefinition_mid-635d47ee543a5a9e15fcd321ee5fe6bb">See above (ManufacturedItemDefinition/mid-635d47ee543a5a9e15fcd321ee5fe6bb)</a></li><li><a href="#MedicinalProductDefinition_mp822aeee7cf35efce0583ec39919328fb">See above (MedicinalProductDefinition/mp822aeee7cf35efce0583ec39919328fb)</a></li><li><a href="#AdministrableProductDefinition_ap-635d47ee543a5a9e15fcd321ee5fe6bb">See above (AdministrableProductDefinition/ap-635d47ee543a5a9e15fcd321ee5fe6bb)</a></li></ul><p><b>role</b>: Excipient <span style="background: LightGoldenRodYellow; margin: 4px; border: 1px solid khaki"> (rmswi#100000072082)</span></p><blockquote><p><b>substance</b></p><h3>Codes</h3><table class="grid"><tr><td style="display: none">-</td><td><b>Concept</b></td></tr><tr><td style="display: none">*</td><td>Monosodium glutamate monohydrate <span style="background: LightGoldenRodYellow; margin: 4px; border: 1px solid khaki"> (beta#nan)</span></td></tr></table></blockquote></div>
        </text>
        <identifier>
          <use value="official"/>
          <system value="https://gsrs.ncats.nih.gov/ginas/app/beta"/>
          <value value="nan"/>
        </identifier>
        <status value="active"/>
        <for>
          <reference value="ManufacturedItemDefinition/mid-635d47ee543a5a9e15fcd321ee5fe6bb"/>
        </for>
        <for>
          <reference value="MedicinalProductDefinition/mp822aeee7cf35efce0583ec39919328fb"/>
        </for>
        <for>
          <reference value="AdministrableProductDefinition/ap-635d47ee543a5a9e15fcd321ee5fe6bb"/>
        </for>
        <role>
          <coding>
            <system value="https://spor.ema.europa.eu/rmswi"/>
            <code value="100000072082"/>
            <display value="Excipient"/>
          </coding>
        </role>
        <substance>
          <code>
            <concept>
              <coding>
                <system value="https://gsrs.ncats.nih.gov/ginas/app/beta"/>
                <code value="nan"/>
                <display value="Monosodium glutamate monohydrate"/>
              </coding>
            </concept>
          </code>
        </substance>
      </Ingredient>
    </resource>
  </entry>
  <entry>
    <fullUrl value="http://hl7.eu/fhir/ig/gravitate-health/Ingredient/ingredient-for-vaxigriptetra-waterforinjections"/>
    <resource>
      <Ingredient>
        <id value="ingredient-for-vaxigriptetra-waterforinjections"/>
        <meta>
          <profile value="http://hl7.org/fhir/uv/emedicinal-product-info/StructureDefinition/Ingredient-uv-epi"/>
        </meta>
        <text>
          <status value="generated"/><div xmlns="http://www.w3.org/1999/xhtml"><a name="Ingredient_ingredient-for-vaxigriptetra-waterforinjections"> </a><p><b>Generated Narrative: Ingredient</b><a name="ingredient-for-vaxigriptetra-waterforinjections"> </a><a name="hcingredient-for-vaxigriptetra-waterforinjections"> </a></p><div style="display: inline-block; background-color: #d9e0e7; padding: 6px; margin: 4px; border: 1px solid #8da1b4; border-radius: 5px; line-height: 60%"><p style="margin-bottom: 0px">Resource Ingredient &quot;ingredient-for-vaxigriptetra-waterforinjections&quot; </p><p style="margin-bottom: 0px">Profile: <a href="https://build.fhir.org/ig/HL7/emedicinal-product-info//StructureDefinition-Ingredient-uv-epi.html">Ingredient (ePI)</a></p></div><p><b>identifier</b>: <code>https://gsrs.ncats.nih.gov/ginas/app/beta</code>/nan (use: OFFICIAL)</p><p><b>status</b>: active</p><p><b>for</b>: </p><ul><li><a href="#ManufacturedItemDefinition_mid-635d47ee543a5a9e15fcd321ee5fe6bb">See above (ManufacturedItemDefinition/mid-635d47ee543a5a9e15fcd321ee5fe6bb)</a></li><li><a href="#MedicinalProductDefinition_mp822aeee7cf35efce0583ec39919328fb">See above (MedicinalProductDefinition/mp822aeee7cf35efce0583ec39919328fb)</a></li><li><a href="#AdministrableProductDefinition_ap-635d47ee543a5a9e15fcd321ee5fe6bb">See above (AdministrableProductDefinition/ap-635d47ee543a5a9e15fcd321ee5fe6bb)</a></li></ul><p><b>role</b>: Excipient <span style="background: LightGoldenRodYellow; margin: 4px; border: 1px solid khaki"> (rmswi#100000072082)</span></p><blockquote><p><b>substance</b></p><h3>Codes</h3><table class="grid"><tr><td style="display: none">-</td><td><b>Concept</b></td></tr><tr><td style="display: none">*</td><td>Water for injections <span style="background: LightGoldenRodYellow; margin: 4px; border: 1px solid khaki"> (beta#nan)</span></td></tr></table></blockquote></div>
        </text>
        <identifier>
          <use value="official"/>
          <system value="https://gsrs.ncats.nih.gov/ginas/app/beta"/>
          <value value="nan"/>
        </identifier>
        <status value="active"/>
        <for>
          <reference value="ManufacturedItemDefinition/mid-635d47ee543a5a9e15fcd321ee5fe6bb"/>
        </for>
        <for>
          <reference value="MedicinalProductDefinition/mp822aeee7cf35efce0583ec39919328fb"/>
        </for>
        <for>
          <reference value="AdministrableProductDefinition/ap-635d47ee543a5a9e15fcd321ee5fe6bb"/>
        </for>
        <role>
          <coding>
            <system value="https://spor.ema.europa.eu/rmswi"/>
            <code value="100000072082"/>
            <display value="Excipient"/>
          </coding>
        </role>
        <substance>
          <code>
            <concept>
              <coding>
                <system value="https://gsrs.ncats.nih.gov/ginas/app/beta"/>
                <code value="nan"/>
                <display value="Water for injections"/>
              </coding>
            </concept>
          </code>
        </substance>
      </Ingredient>
    </resource>
  </entry>
  <entry>
    <fullUrl value="http://hl7.eu/fhir/ig/gravitate-health/AdministrableProductDefinition/ap-635d47ee543a5a9e15fcd321ee5fe6bb"/>
    <resource>
      <AdministrableProductDefinition>
        <id value="ap-635d47ee543a5a9e15fcd321ee5fe6bb"/>
        <meta>
          <profile value="http://hl7.org/fhir/uv/emedicinal-product-info/StructureDefinition/AdministrableProductDefinition-uv-epi"/>
        </meta>
        <text>
          <status value="generated"/><div xmlns="http://www.w3.org/1999/xhtml"><a name="AdministrableProductDefinition_ap-635d47ee543a5a9e15fcd321ee5fe6bb"> </a><p><b>Generated Narrative: AdministrableProductDefinition</b><a name="ap-635d47ee543a5a9e15fcd321ee5fe6bb"> </a><a name="hcap-635d47ee543a5a9e15fcd321ee5fe6bb"> </a></p><div style="display: inline-block; background-color: #d9e0e7; padding: 6px; margin: 4px; border: 1px solid #8da1b4; border-radius: 5px; line-height: 60%"><p style="margin-bottom: 0px">Resource AdministrableProductDefinition &quot;ap-635d47ee543a5a9e15fcd321ee5fe6bb&quot; </p><p style="margin-bottom: 0px">Profile: <a href="https://build.fhir.org/ig/HL7/emedicinal-product-info//StructureDefinition-AdministrableProductDefinition-uv-epi.html">AdministrableProductDefinition (ePI)</a></p></div><p><b>identifier</b>: <code>https://spor.ema.europa.eu/pmswi</code>/nan</p><p><b>status</b>: active</p><p><b>formOf</b>: <a href="#MedicinalProductDefinition_mp822aeee7cf35efce0583ec39919328fb">See above (MedicinalProductDefinition/mp822aeee7cf35efce0583ec39919328fb)</a></p><p><b>administrableDoseForm</b>: Nasal spray <span style="background: LightGoldenRodYellow; margin: 4px; border: 1px solid khaki"> (rmswi#200000016474)</span></p><p><b>unitOfPresentation</b>: Spray <span style="background: LightGoldenRodYellow; margin: 4px; border: 1px solid khaki"> (rmswi#200000016451)</span></p><p><b>producedFrom</b>: <a href="#ManufacturedItemDefinition_mid-635d47ee543a5a9e15fcd321ee5fe6bb">See above (ManufacturedItemDefinition/mid-635d47ee543a5a9e15fcd321ee5fe6bb)</a></p><blockquote><p><b>routeOfAdministration</b></p><p><b>code</b>: Nasal use <span style="background: LightGoldenRodYellow; margin: 4px; border: 1px solid khaki"> (rmswi#100000073615)</span></p><h3>TargetSpecies</h3><table class="grid"><tr><td style="display: none">-</td><td><b>Code</b></td></tr><tr><td style="display: none">*</td><td>Human <span style="background: LightGoldenRodYellow; margin: 4px; border: 1px solid khaki"> (rmswi#100000109093)</span></td></tr></table></blockquote></div>
        </text>
        <identifier>
          <system value="https://spor.ema.europa.eu/pmswi"/>
          <value value="nan"/>
        </identifier>
        <status value="active"/>
        <formOf>
          <reference value="MedicinalProductDefinition/mp822aeee7cf35efce0583ec39919328fb"/>
        </formOf>
        <administrableDoseForm>
          <coding>
            <system value="https://spor.ema.europa.eu/rmswi"/>
            <code value="200000016474"/>
            <display value="Nasal spray"/>
          </coding>
        </administrableDoseForm>
        <unitOfPresentation>
          <coding>
            <system value="https://spor.ema.europa.eu/rmswi"/>
            <code value="200000016451"/>
            <display value="Spray"/>
          </coding>
        </unitOfPresentation>
        <producedFrom>
          <reference value="ManufacturedItemDefinition/mid-635d47ee543a5a9e15fcd321ee5fe6bb"/>
        </producedFrom>
        <routeOfAdministration>
          <code>
            <coding>
              <system value="https://spor.ema.europa.eu/rmswi"/>
              <code value="100000073615"/>
              <display value="Nasal use"/>
            </coding>
          </code>
          <targetSpecies>
            <code>
              <coding>
                <system value="https://spor.ema.europa.eu/rmswi"/>
                <code value="100000109093"/>
                <display value="Human"/>
              </coding>
            </code>
          </targetSpecies>
        </routeOfAdministration>
      </AdministrableProductDefinition>
    </resource>
  </entry>
  <entry>
    <fullUrl value="http://hl7.eu/fhir/ig/gravitate-health/RegulatedAuthorization/authorization635d47ee543a5a9e15fcd321ee5fe6bb0"/>
    <resource>
      <RegulatedAuthorization>
        <id value="authorization635d47ee543a5a9e15fcd321ee5fe6bb0"/>
        <meta>
          <profile value="http://hl7.org/fhir/uv/emedicinal-product-info/StructureDefinition/RegulatedAuthorization-uv-epi"/>
        </meta>
        <text>
          <status value="generated"/><div xmlns="http://www.w3.org/1999/xhtml"><a name="RegulatedAuthorization_authorization635d47ee543a5a9e15fcd321ee5fe6bb0"> </a><p><b>Generated Narrative: RegulatedAuthorization</b><a name="authorization635d47ee543a5a9e15fcd321ee5fe6bb0"> </a><a name="hcauthorization635d47ee543a5a9e15fcd321ee5fe6bb0"> </a></p><div style="display: inline-block; background-color: #d9e0e7; padding: 6px; margin: 4px; border: 1px solid #8da1b4; border-radius: 5px; line-height: 60%"><p style="margin-bottom: 0px">Resource RegulatedAuthorization &quot;authorization635d47ee543a5a9e15fcd321ee5fe6bb0&quot; </p><p style="margin-bottom: 0px">Profile: <a href="https://build.fhir.org/ig/HL7/emedicinal-product-info//StructureDefinition-RegulatedAuthorization-uv-epi.html">RegulatedAuthorization (ePI)</a></p></div><p><b>identifier</b>: <code>https://spor.ema.europa.eu/pmswi</code>/EU/1/13/887/003 (use: OFFICIAL)</p><p><b>subject</b>: <a href="#PackagedProductDefinition_ppd-f22a97fafd26aa7001d9fe6a30afa7b2">See above (PackagedProductDefinition/ppd-f22a97fafd26aa7001d9fe6a30afa7b2)</a></p><p><b>type</b>: Marketing Authorisation <span style="background: LightGoldenRodYellow; margin: 4px; border: 1px solid khaki"> (rmswi#220000000061)</span></p><p><b>status</b>: Active <span style="background: LightGoldenRodYellow; margin: 4px; border: 1px solid khaki"> (<a href="http://hl7.org/fhir/R5/codesystem-publication-status.html">PublicationStatus</a>#active)</span></p><p><b>statusDate</b>: 2015-02-07 13:28:17+0000</p><p><b>holder</b>: <a href="#Organization_mah-46a3afc149c080384b82a9e476e79f76">See above (Organization/mah-46a3afc149c080384b82a9e476e79f76)</a></p></div>
        </text>
        <identifier>
          <use value="official"/>
          <system value="https://spor.ema.europa.eu/pmswi"/>
          <value value="EU/1/13/887/003"/>
        </identifier>
        <subject>
          <reference value="PackagedProductDefinition/ppd-f22a97fafd26aa7001d9fe6a30afa7b2"/>
        </subject>
        <type>
          <coding>
            <system value="https://spor.ema.europa.eu/rmswi"/>
            <code value="220000000061"/>
            <display value="Marketing Authorisation"/>
          </coding>
        </type>
        <status>
          <coding>
            <system value="http://hl7.org/fhir/publication-status"/>
            <code value="active"/>
            <display value="Active"/>
          </coding>
        </status>
        <statusDate value="2015-02-07T13:28:17Z"/>
        <holder>
          <reference value="Organization/mah-46a3afc149c080384b82a9e476e79f76"/>
        </holder>
      </RegulatedAuthorization>
    </resource>
  </entry>
  <entry>
    <fullUrl value="http://hl7.eu/fhir/ig/gravitate-health/RegulatedAuthorization/authorization635d47ee543a5a9e15fcd321ee5fe6bb1"/>
    <resource>
      <RegulatedAuthorization>
        <id value="authorization635d47ee543a5a9e15fcd321ee5fe6bb1"/>
        <meta>
          <profile value="http://hl7.org/fhir/uv/emedicinal-product-info/StructureDefinition/RegulatedAuthorization-uv-epi"/>
        </meta>
        <text>
          <status value="generated"/><div xmlns="http://www.w3.org/1999/xhtml"><a name="RegulatedAuthorization_authorization635d47ee543a5a9e15fcd321ee5fe6bb1"> </a><p><b>Generated Narrative: RegulatedAuthorization</b><a name="authorization635d47ee543a5a9e15fcd321ee5fe6bb1"> </a><a name="hcauthorization635d47ee543a5a9e15fcd321ee5fe6bb1"> </a></p><div style="display: inline-block; background-color: #d9e0e7; padding: 6px; margin: 4px; border: 1px solid #8da1b4; border-radius: 5px; line-height: 60%"><p style="margin-bottom: 0px">Resource RegulatedAuthorization &quot;authorization635d47ee543a5a9e15fcd321ee5fe6bb1&quot; </p><p style="margin-bottom: 0px">Profile: <a href="https://build.fhir.org/ig/HL7/emedicinal-product-info//StructureDefinition-RegulatedAuthorization-uv-epi.html">RegulatedAuthorization (ePI)</a></p></div><p><b>identifier</b>: <code>https://spor.ema.europa.eu/pmswi</code>/EU/1/13/887/004 (use: OFFICIAL)</p><p><b>subject</b>: <a href="#PackagedProductDefinition_ppd-533038a0a634e664ced4f999f6a95f85">See above (PackagedProductDefinition/ppd-533038a0a634e664ced4f999f6a95f85)</a></p><p><b>type</b>: Marketing Authorisation <span style="background: LightGoldenRodYellow; margin: 4px; border: 1px solid khaki"> (rmswi#220000000061)</span></p><p><b>status</b>: Active <span style="background: LightGoldenRodYellow; margin: 4px; border: 1px solid khaki"> (<a href="http://hl7.org/fhir/R5/codesystem-publication-status.html">PublicationStatus</a>#active)</span></p><p><b>statusDate</b>: 2015-02-07 13:28:17+0000</p><p><b>holder</b>: <a href="#Organization_mah-46a3afc149c080384b82a9e476e79f76">See above (Organization/mah-46a3afc149c080384b82a9e476e79f76)</a></p></div>
        </text>
        <identifier>
          <use value="official"/>
          <system value="https://spor.ema.europa.eu/pmswi"/>
          <value value="EU/1/13/887/004"/>
        </identifier>
        <subject>
          <reference value="PackagedProductDefinition/ppd-533038a0a634e664ced4f999f6a95f85"/>
        </subject>
        <type>
          <coding>
            <system value="https://spor.ema.europa.eu/rmswi"/>
            <code value="220000000061"/>
            <display value="Marketing Authorisation"/>
          </coding>
        </type>
        <status>
          <coding>
            <system value="http://hl7.org/fhir/publication-status"/>
            <code value="active"/>
            <display value="Active"/>
          </coding>
        </status>
        <statusDate value="2015-02-07T13:28:17Z"/>
        <holder>
          <reference value="Organization/mah-46a3afc149c080384b82a9e476e79f76"/>
        </holder>
      </RegulatedAuthorization>
    </resource>
  </entry>
  <entry>
    <fullUrl value="http://hl7.eu/fhir/ig/gravitate-health/Organization/man-05de1a64764c002add42fbfd49b6a38d"/>
    <resource>
      <Organization>
        <id value="man-05de1a64764c002add42fbfd49b6a38d"/>
        <meta>
          <profile value="http://hl7.org/fhir/uv/emedicinal-product-info/StructureDefinition/Organization-uv-epi"/>
        </meta>
        <text>
          <status value="generated"/><div xmlns="http://www.w3.org/1999/xhtml"><a name="Organization_man-05de1a64764c002add42fbfd49b6a38d"> </a><p><b>Generated Narrative: Organization</b><a name="man-05de1a64764c002add42fbfd49b6a38d"> </a><a name="hcman-05de1a64764c002add42fbfd49b6a38d"> </a></p><div style="display: inline-block; background-color: #d9e0e7; padding: 6px; margin: 4px; border: 1px solid #8da1b4; border-radius: 5px; line-height: 60%"><p style="margin-bottom: 0px">Resource Organization &quot;man-05de1a64764c002add42fbfd49b6a38d&quot; </p><p style="margin-bottom: 0px">Profile: <a href="https://build.fhir.org/ig/HL7/emedicinal-product-info//StructureDefinition-Organization-uv-epi.html">Organization (ePI)</a></p></div><p><b>identifier</b>: <code>https://spor.ema.europa.eu/omswi</code>/ORG-100000789 (use: OFFICIAL)</p><p><b>active</b>: true</p><p><b>type</b>: Manufacturer <span style="background: LightGoldenRodYellow; margin: 4px; border: 1px solid khaki"> (rmswi#220000000033)</span></p><p><b>name</b>: MedImmune, UK Limited</p><h3>Contacts</h3><table class="grid"><tr><td style="display: none">-</td><td><b>Address</b></td></tr><tr><td style="display: none">*</td><td>Plot 6, Renaissance Way, Boulevard Industry Park Liverpool UK(WORK)</td></tr></table></div>
        </text>
        <identifier>
          <use value="official"/>
          <system value="https://spor.ema.europa.eu/omswi"/>
          <value value="ORG-100000789"/>
        </identifier>
        <active value="true"/>
        <type>
          <coding>
            <system value="https://spor.ema.europa.eu/rmswi"/>
            <code value="220000000033"/>
            <display value="Manufacturer"/>
          </coding>
        </type>
        <name value="MedImmune, UK Limited"/>
        <contact>
          <address>
            <use value="work"/>
            <type value="physical"/>
            <text value="Plot 6, Renaissance Way, Boulevard Industry Park Liverpool UK"/>
            <line value="Plot 6, Renaissance Way, Boulevard Industry Park"/>
            <city value="Liverpool"/>
            <postalCode value="L24 9JW"/>
            <country value="UK"/>
          </address>
        </contact>
      </Organization>
    </resource>
  </entry>
  <entry>
    <fullUrl value="http://hl7.eu/fhir/ig/gravitate-health/Organization/mah-46a3afc149c080384b82a9e476e79f76"/>
    <resource>
      <Organization>
        <id value="mah-46a3afc149c080384b82a9e476e79f76"/>
        <meta>
          <profile value="http://hl7.org/fhir/uv/emedicinal-product-info/StructureDefinition/Organization-uv-epi"/>
        </meta>
        <text>
          <status value="generated"/><div xmlns="http://www.w3.org/1999/xhtml"><a name="Organization_mah-46a3afc149c080384b82a9e476e79f76"> </a><p><b>Generated Narrative: Organization</b><a name="mah-46a3afc149c080384b82a9e476e79f76"> </a><a name="hcmah-46a3afc149c080384b82a9e476e79f76"> </a></p><div style="display: inline-block; background-color: #d9e0e7; padding: 6px; margin: 4px; border: 1px solid #8da1b4; border-radius: 5px; line-height: 60%"><p style="margin-bottom: 0px">Resource Organization &quot;mah-46a3afc149c080384b82a9e476e79f76&quot; </p><p style="margin-bottom: 0px">Profile: <a href="https://build.fhir.org/ig/HL7/emedicinal-product-info//StructureDefinition-Organization-uv-epi.html">Organization (ePI)</a></p></div><p><b>identifier</b>: <code>https://spor.ema.europa.eu/omswi</code>/ORG-100000789 (use: OFFICIAL)</p><p><b>active</b>: true</p><p><b>type</b>: Marketing authorisation holder <span style="background: LightGoldenRodYellow; margin: 4px; border: 1px solid khaki"> (rmswi#220000000034)</span></p><p><b>name</b>: AstraZeneca AB</p><h3>Contacts</h3><table class="grid"><tr><td style="display: none">-</td><td><b>Address</b></td></tr><tr><td style="display: none">*</td><td>SE-151 85 Södertälje Södertälje SWE(WORK)</td></tr></table></div>
        </text>
        <identifier>
          <use value="official"/>
          <system value="https://spor.ema.europa.eu/omswi"/>
          <value value="ORG-100000789"/>
        </identifier>
        <active value="true"/>
        <type>
          <coding>
            <system value="https://spor.ema.europa.eu/rmswi"/>
            <code value="220000000034"/>
            <display value="Marketing authorisation holder"/>
          </coding>
        </type>
        <name value="AstraZeneca AB"/>
        <contact>
          <address>
            <use value="work"/>
            <type value="physical"/>
            <text value="SE-151 85 Södertälje Södertälje SWE"/>
            <line value="SE-151 85 Södertälje"/>
            <city value="Södertälje"/>
            <country value="SWE"/>
          </address>
        </contact>
      </Organization>
    </resource>
  </entry>
  <entry>
    <fullUrl value="http://hl7.eu/fhir/ig/gravitate-health/PackagedProductDefinition/ppd-f22a97fafd26aa7001d9fe6a30afa7b2"/>
    <resource>
      <PackagedProductDefinition>
        <id value="ppd-f22a97fafd26aa7001d9fe6a30afa7b2"/>
        <meta>
          <profile value="http://hl7.org/fhir/uv/emedicinal-product-info/StructureDefinition/PackagedProductDefinition-uv-epi"/>
        </meta>
        <text>
          <status value="generated"/><div xmlns="http://www.w3.org/1999/xhtml"><a name="PackagedProductDefinition_ppd-f22a97fafd26aa7001d9fe6a30afa7b2"> </a><p><b>Generated Narrative: PackagedProductDefinition</b><a name="ppd-f22a97fafd26aa7001d9fe6a30afa7b2"> </a><a name="hcppd-f22a97fafd26aa7001d9fe6a30afa7b2"> </a></p><div style="display: inline-block; background-color: #d9e0e7; padding: 6px; margin: 4px; border: 1px solid #8da1b4; border-radius: 5px; line-height: 60%"><p style="margin-bottom: 0px">Resource PackagedProductDefinition &quot;ppd-f22a97fafd26aa7001d9fe6a30afa7b2&quot; </p><p style="margin-bottom: 0px">Profile: <a href="https://build.fhir.org/ig/HL7/emedicinal-product-info//StructureDefinition-PackagedProductDefinition-uv-epi.html">PackagedProductDefinition (ePI)</a></p></div><p><b>identifier</b>: <code>https://spor.ema.europa.eu/pmswi</code>/EU/1/13/887/003 (use: OFFICIAL)</p><p><b>name</b>: Fluenz Tetra nasal spray suspension 1</p><p><b>type</b>: Chemical Medicinal Product <span style="background: LightGoldenRodYellow; margin: 4px; border: 1px solid khaki"> (rmswi#100000155527)</span></p><p><b>packageFor</b>: <a href="#MedicinalProductDefinition_mp822aeee7cf35efce0583ec39919328fb">See above (MedicinalProductDefinition/mp822aeee7cf35efce0583ec39919328fb)</a></p><p><b>status</b>: Active <span style="background: LightGoldenRodYellow; margin: 4px; border: 1px solid khaki"> (<a href="http://hl7.org/fhir/R5/codesystem-publication-status.html">PublicationStatus</a>#active)</span></p><p><b>statusDate</b>: 2015-02-07 13:28:17+0000</p><p><b>manufacturer</b>: <a href="#Organization_man-05de1a64764c002add42fbfd49b6a38d">See above (Organization/man-05de1a64764c002add42fbfd49b6a38d)</a></p><blockquote><p><b>packaging</b></p><p><b>type</b>: Box <span style="background: LightGoldenRodYellow; margin: 4px; border: 1px solid khaki"> (rmswi#100000073498)</span></p><p><b>quantity</b>: 1</p><p><b>material</b>: Cardboard <span style="background: LightGoldenRodYellow; margin: 4px; border: 1px solid khaki"> (rmswi#200000003529)</span></p><blockquote><p><b>packaging</b></p><p><b>identifier</b>: <code>https://spor.ema.europa.eu/pmswi</code>/123456</p><p><b>type</b>: Nasal applicator <span style="background: LightGoldenRodYellow; margin: 4px; border: 1px solid khaki"> (rmswi#100000073533)</span></p><p><b>quantity</b>: 1</p><blockquote><p><b>containedItem</b></p></blockquote></blockquote></blockquote></div>
        </text>
        <identifier>
          <use value="official"/>
          <system value="https://spor.ema.europa.eu/pmswi"/>
          <value value="EU/1/13/887/003"/>
        </identifier>
        <name value="Fluenz Tetra nasal spray suspension 1"/>
        <type>
          <coding>
            <system value="https://spor.ema.europa.eu/rmswi"/>
            <code value="100000155527"/>
            <display value="Chemical Medicinal Product"/>
          </coding>
        </type>
        <packageFor>
          <reference value="MedicinalProductDefinition/mp822aeee7cf35efce0583ec39919328fb"/>
        </packageFor>
        <status>
          <coding>
            <system value="http://hl7.org/fhir/publication-status"/>
            <code value="active"/>
            <display value="Active"/>
          </coding>
        </status>
        <statusDate value="2015-02-07T13:28:17Z"/>
        <manufacturer>
          <reference value="Organization/man-05de1a64764c002add42fbfd49b6a38d"/>
        </manufacturer>
        <packaging>
          <type>
            <coding>
              <system value="https://spor.ema.europa.eu/rmswi"/>
              <code value="100000073498"/>
              <display value="Box"/>
            </coding>
          </type>
          <quantity value="1"/>
          <material>
            <coding>
              <system value="https://spor.ema.europa.eu/rmswi"/>
              <code value="200000003529"/>
              <display value="Cardboard"/>
            </coding>
          </material>
          <packaging>
            <identifier>
              <system value="https://spor.ema.europa.eu/pmswi"/>
              <value value="123456"/>
            </identifier>
            <type>
              <coding>
                <system value="https://spor.ema.europa.eu/rmswi"/>
                <code value="100000073533"/>
                <display value="Nasal applicator"/>
              </coding>
            </type>
            <quantity value="1"/>
            <containedItem>
              <item>
                <reference>
                  <reference value="ManufacturedItemDefinition/mid-635d47ee543a5a9e15fcd321ee5fe6bb"/>
                </reference>
              </item>
            </containedItem>
          </packaging>
        </packaging>
      </PackagedProductDefinition>
    </resource>
  </entry>
  <entry>
    <fullUrl value="http://hl7.eu/fhir/ig/gravitate-health/PackagedProductDefinition/ppd-533038a0a634e664ced4f999f6a95f85"/>
    <resource>
      <PackagedProductDefinition>
        <id value="ppd-533038a0a634e664ced4f999f6a95f85"/>
        <meta>
          <profile value="http://hl7.org/fhir/uv/emedicinal-product-info/StructureDefinition/PackagedProductDefinition-uv-epi"/>
        </meta>
        <text>
          <status value="generated"/><div xmlns="http://www.w3.org/1999/xhtml"><a name="PackagedProductDefinition_ppd-533038a0a634e664ced4f999f6a95f85"> </a><p><b>Generated Narrative: PackagedProductDefinition</b><a name="ppd-533038a0a634e664ced4f999f6a95f85"> </a><a name="hcppd-533038a0a634e664ced4f999f6a95f85"> </a></p><div style="display: inline-block; background-color: #d9e0e7; padding: 6px; margin: 4px; border: 1px solid #8da1b4; border-radius: 5px; line-height: 60%"><p style="margin-bottom: 0px">Resource PackagedProductDefinition &quot;ppd-533038a0a634e664ced4f999f6a95f85&quot; </p><p style="margin-bottom: 0px">Profile: <a href="https://build.fhir.org/ig/HL7/emedicinal-product-info//StructureDefinition-PackagedProductDefinition-uv-epi.html">PackagedProductDefinition (ePI)</a></p></div><p><b>identifier</b>: <code>https://spor.ema.europa.eu/pmswi</code>/EU/1/13/887/004 (use: OFFICIAL)</p><p><b>name</b>: Fluenz Tetra nasal spray suspension 10</p><p><b>type</b>: Chemical Medicinal Product <span style="background: LightGoldenRodYellow; margin: 4px; border: 1px solid khaki"> (rmswi#100000155527)</span></p><p><b>packageFor</b>: <a href="#MedicinalProductDefinition_mp822aeee7cf35efce0583ec39919328fb">See above (MedicinalProductDefinition/mp822aeee7cf35efce0583ec39919328fb)</a></p><p><b>status</b>: Active <span style="background: LightGoldenRodYellow; margin: 4px; border: 1px solid khaki"> (<a href="http://hl7.org/fhir/R5/codesystem-publication-status.html">PublicationStatus</a>#active)</span></p><p><b>statusDate</b>: 2015-02-07 13:28:17+0000</p><p><b>manufacturer</b>: <a href="#Organization_man-05de1a64764c002add42fbfd49b6a38d">See above (Organization/man-05de1a64764c002add42fbfd49b6a38d)</a></p><blockquote><p><b>packaging</b></p><p><b>type</b>: Box <span style="background: LightGoldenRodYellow; margin: 4px; border: 1px solid khaki"> (rmswi#100000073498)</span></p><p><b>quantity</b>: 1</p><p><b>material</b>: Cardboard <span style="background: LightGoldenRodYellow; margin: 4px; border: 1px solid khaki"> (rmswi#200000003529)</span></p><blockquote><p><b>packaging</b></p><p><b>identifier</b>: <code>https://spor.ema.europa.eu/pmswi</code>/123456</p><p><b>type</b>: Nasal applicator <span style="background: LightGoldenRodYellow; margin: 4px; border: 1px solid khaki"> (rmswi#100000073533)</span></p><p><b>quantity</b>: 10</p><blockquote><p><b>containedItem</b></p></blockquote></blockquote></blockquote></div>
        </text>
        <identifier>
          <use value="official"/>
          <system value="https://spor.ema.europa.eu/pmswi"/>
          <value value="EU/1/13/887/004"/>
        </identifier>
        <name value="Fluenz Tetra nasal spray suspension 10"/>
        <type>
          <coding>
            <system value="https://spor.ema.europa.eu/rmswi"/>
            <code value="100000155527"/>
            <display value="Chemical Medicinal Product"/>
          </coding>
        </type>
        <packageFor>
          <reference value="MedicinalProductDefinition/mp822aeee7cf35efce0583ec39919328fb"/>
        </packageFor>
        <status>
          <coding>
            <system value="http://hl7.org/fhir/publication-status"/>
            <code value="active"/>
            <display value="Active"/>
          </coding>
        </status>
        <statusDate value="2015-02-07T13:28:17Z"/>
        <manufacturer>
          <reference value="Organization/man-05de1a64764c002add42fbfd49b6a38d"/>
        </manufacturer>
        <packaging>
          <type>
            <coding>
              <system value="https://spor.ema.europa.eu/rmswi"/>
              <code value="100000073498"/>
              <display value="Box"/>
            </coding>
          </type>
          <quantity value="1"/>
          <material>
            <coding>
              <system value="https://spor.ema.europa.eu/rmswi"/>
              <code value="200000003529"/>
              <display value="Cardboard"/>
            </coding>
          </material>
          <packaging>
            <identifier>
              <system value="https://spor.ema.europa.eu/pmswi"/>
              <value value="123456"/>
            </identifier>
            <type>
              <coding>
                <system value="https://spor.ema.europa.eu/rmswi"/>
                <code value="100000073533"/>
                <display value="Nasal applicator"/>
              </coding>
            </type>
            <quantity value="10"/>
            <containedItem>
              <item>
                <reference>
                  <reference value="ManufacturedItemDefinition/mid-635d47ee543a5a9e15fcd321ee5fe6bb"/>
                </reference>
              </item>
            </containedItem>
          </packaging>
        </packaging>
      </PackagedProductDefinition>
    </resource>
  </entry>
  <entry>
    <fullUrl value="http://hl7.eu/fhir/ig/gravitate-health/MedicinalProductDefinition/mp822aeee7cf35efce0583ec39919328fb"/>
    <resource>
      <MedicinalProductDefinition>
        <id value="mp822aeee7cf35efce0583ec39919328fb"/>
        <meta>
          <profile value="http://hl7.org/fhir/uv/emedicinal-product-info/StructureDefinition/MedicinalProductDefinition-uv-epi"/>
        </meta>
        <text>
          <status value="generated"/><div xmlns="http://www.w3.org/1999/xhtml"><a name="MedicinalProductDefinition_mp822aeee7cf35efce0583ec39919328fb"> </a><p><b>Generated Narrative: MedicinalProductDefinition</b><a name="mp822aeee7cf35efce0583ec39919328fb"> </a><a name="hcmp822aeee7cf35efce0583ec39919328fb"> </a></p><div style="display: inline-block; background-color: #d9e0e7; padding: 6px; margin: 4px; border: 1px solid #8da1b4; border-radius: 5px; line-height: 60%"><p style="margin-bottom: 0px">Resource MedicinalProductDefinition &quot;mp822aeee7cf35efce0583ec39919328fb&quot; </p><p style="margin-bottom: 0px">Profile: <a href="https://build.fhir.org/ig/HL7/emedicinal-product-info//StructureDefinition-MedicinalProductDefinition-uv-epi.html">MedicinalProductDefinition (ePI)</a></p></div><p><b>identifier</b>: <code>http://fakesys.com/ids</code>/ft1</p><p><b>type</b>: Medicinal Product <span style="background: LightGoldenRodYellow; margin: 4px; border: 1px solid khaki"> (<a href="http://hl7.org/fhir/R5/codesystem-medicinal-product-type.html">Medicinal Product Type</a>#MedicinalProduct)</span></p><p><b>domain</b>: Human use <span style="background: LightGoldenRodYellow; margin: 4px; border: 1px solid khaki"> (<a href="http://hl7.org/fhir/R5/codesystem-medicinal-product-domain.html">Medicinal Product Domain</a>#Human)</span></p><p><b>status</b>: active <span style="background: LightGoldenRodYellow; margin: 4px; border: 1px solid khaki"> (<a href="http://hl7.org/fhir/R5/codesystem-publication-status.html">PublicationStatus</a>#active)</span></p><p><b>legalStatusOfSupply</b>: Medicinal product subject to medical prescription <span style="background: LightGoldenRodYellow; margin: 4px; border: 1px solid khaki"> (rmswi#100000072084)</span></p><blockquote><p><b>name</b></p><p><b>productName</b>: Fluenz Tetra nasal spray suspension</p><p><b>type</b>: Full name <span style="background: LightGoldenRodYellow; margin: 4px; border: 1px solid khaki"> (220000000000#220000000001)</span></p><blockquote><p><b>part</b></p><p><b>part</b>: Fluenz Tetra</p><p><b>type</b>: Invented name part <span style="background: LightGoldenRodYellow; margin: 4px; border: 1px solid khaki"> (220000000000#220000000002)</span></p></blockquote><blockquote><p><b>part</b></p><p><b>part</b>: Reassortant influenza virus* (live attenuated) of  four strains</p><p><b>type</b>: Scientific name part <span style="background: LightGoldenRodYellow; margin: 4px; border: 1px solid khaki"> (220000000000#220000000003)</span></p></blockquote><blockquote><p><b>part</b></p><p><b>part</b>: ??</p><p><b>type</b>: Strength part <span style="background: LightGoldenRodYellow; margin: 4px; border: 1px solid khaki"> (220000000000#220000000004)</span></p></blockquote><blockquote><p><b>part</b></p><p><b>part</b>: Nasal Spray</p><p><b>type</b>: Pharmaceutical dose form part <span style="background: LightGoldenRodYellow; margin: 4px; border: 1px solid khaki"> (220000000000#220000000005)</span></p></blockquote><h3>Usages</h3><table class="grid"><tr><td style="display: none">-</td><td><b>Country</b></td><td><b>Jurisdiction</b></td><td><b>Language</b></td></tr><tr><td style="display: none">*</td><td>Denmark <span style="background: LightGoldenRodYellow; margin: 4px; border: 1px solid khaki"> (<a href="http://terminology.hl7.org/5.3.0/CodeSystem-ISO3166Part1.html">ISO 3166-1 Codes for the representation of names of countries and their subdivisions — Part 1: Country code</a>#DK)</span></td><td>Denmark <span style="background: LightGoldenRodYellow; margin: 4px; border: 1px solid khaki"> (<a href="http://terminology.hl7.org/5.3.0/CodeSystem-ISO3166Part1.html">ISO 3166-1 Codes for the representation of names of countries and their subdivisions — Part 1: Country code</a>#DK)</span></td><td>English <span style="background: LightGoldenRodYellow; margin: 4px; border: 1px solid khaki"> (<a href="http://terminology.hl7.org/5.3.0/CodeSystem-v3-ietf3066.html">Tags for the Identification of Languages</a>#en)</span></td></tr></table></blockquote></div>
        </text>
        <identifier>
          <system value="http://fakesys.com/ids"/>
          <value value="ft1"/>
        </identifier>
        <type>
          <coding>
            <system value="http://hl7.org/fhir/medicinal-product-type"/>
            <code value="MedicinalProduct"/>
            <display value="Medicinal Product"/>
          </coding>
        </type>
        <domain>
          <coding>
            <system value="http://hl7.org/fhir/medicinal-product-domain"/>
            <code value="Human"/>
            <display value="Human use"/>
          </coding>
        </domain>
        <status>
          <coding>
            <system value="http://hl7.org/fhir/publication-status"/>
            <code value="active"/>
            <display value="active"/>
          </coding>
        </status>
        <legalStatusOfSupply>
          <coding>
            <system value="https://spor.ema.europa.eu/rmswi"/>
            <code value="100000072084"/>
            <display value="Medicinal product subject to medical prescription"/>
          </coding>
        </legalStatusOfSupply>
        <name>
          <productName value="Fluenz Tetra nasal spray suspension"/>
          <type>
            <coding>
              <system value="https://spor.ema.europa.eu/lists/220000000000"/>
              <code value="220000000001"/>
              <display value="Full name"/>
            </coding>
          </type>
          <part>
            <part value="Fluenz Tetra"/>
            <type>
              <coding>
                <system value="https://spor.ema.europa.eu/lists/220000000000"/>
                <code value="220000000002"/>
                <display value="Invented name part"/>
              </coding>
            </type>
          </part>
          <part>
            <part value="Reassortant influenza virus* (live attenuated) of  four strains"/>
            <type>
              <coding>
                <system value="https://spor.ema.europa.eu/lists/220000000000"/>
                <code value="220000000003"/>
                <display value="Scientific name part"/>
              </coding>
            </type>
          </part>
          <part>
            <part value=""/>
            <type>
              <coding>
                <system value="https://spor.ema.europa.eu/lists/220000000000"/>
                <code value="220000000004"/>
                <display value="Strength part"/>
              </coding>
            </type>
          </part>
          <part>
            <part value="Nasal Spray"/>
            <type>
              <coding>
                <system value="https://spor.ema.europa.eu/lists/220000000000"/>
                <code value="220000000005"/>
                <display value="Pharmaceutical dose form part"/>
              </coding>
            </type>
          </part>
          <usage>
            <country>
              <coding>
                <system value="urn:iso:std:iso:3166"/>
                <code value="DK"/>
                <display value="Denmark"/>
              </coding>
            </country>
            <jurisdiction>
              <coding>
                <system value="urn:iso:std:iso:3166"/>
                <code value="DK"/>
                <display value="Denmark"/>
              </coding>
            </jurisdiction>
            <language>
              <coding>
                <system value="urn:ietf:bcp:47"/>
                <code value="en"/>
                <display value="English"/>
              </coding>
            </language>
          </usage>
        </name>
      </MedicinalProductDefinition>
    </resource>
  </entry>
  <entry>
    <fullUrl value="http://hl7.eu/fhir/ig/gravitate-health/ManufacturedItemDefinition/mid-635d47ee543a5a9e15fcd321ee5fe6bb"/>
    <resource>
      <ManufacturedItemDefinition>
        <id value="mid-635d47ee543a5a9e15fcd321ee5fe6bb"/>
        <meta>
          <profile value="http://hl7.org/fhir/uv/emedicinal-product-info/StructureDefinition/ManufacturedItemDefinition-uv-epi"/>
        </meta>
        <text>
          <status value="generated"/><div xmlns="http://www.w3.org/1999/xhtml"><a name="ManufacturedItemDefinition_mid-635d47ee543a5a9e15fcd321ee5fe6bb"> </a><p><b>Generated Narrative: ManufacturedItemDefinition</b><a name="mid-635d47ee543a5a9e15fcd321ee5fe6bb"> </a><a name="hcmid-635d47ee543a5a9e15fcd321ee5fe6bb"> </a></p><div style="display: inline-block; background-color: #d9e0e7; padding: 6px; margin: 4px; border: 1px solid #8da1b4; border-radius: 5px; line-height: 60%"><p style="margin-bottom: 0px">Resource ManufacturedItemDefinition &quot;mid-635d47ee543a5a9e15fcd321ee5fe6bb&quot; </p><p style="margin-bottom: 0px">Profile: <a href="https://build.fhir.org/ig/HL7/emedicinal-product-info//StructureDefinition-ManufacturedItemDefinition-uv-epi.html">ManufacturedItemDefinition (ePI)</a></p></div><p><b>identifier</b>: <code>https://spor.ema.europa.eu/pmswi</code>/nan (use: OFFICIAL)</p><p><b>status</b>: active</p><p><b>manufacturedDoseForm</b>: Nasal spray <span style="background: LightGoldenRodYellow; margin: 4px; border: 1px solid khaki"> (#200000016474)</span></p><p><b>unitOfPresentation</b>: Spray <span style="background: LightGoldenRodYellow; margin: 4px; border: 1px solid khaki"> (rmswi#200000016451)</span></p><p><b>manufacturer</b>: <a href="#Organization_man-05de1a64764c002add42fbfd49b6a38d">See above (Organization/man-05de1a64764c002add42fbfd49b6a38d)</a></p></div>
        </text>
        <identifier>
          <use value="official"/>
          <system value="https://spor.ema.europa.eu/pmswi"/>
          <value value="nan"/>
        </identifier>
        <status value="active"/>
        <manufacturedDoseForm>
          <coding>
            <system value="https://spor.ema.europa.eu/rmswi/"/>
            <code value="200000016474"/>
            <display value="Nasal spray"/>
          </coding>
        </manufacturedDoseForm>
        <unitOfPresentation>
          <coding>
            <system value="https://spor.ema.europa.eu/rmswi"/>
            <code value="200000016451"/>
            <display value="Spray"/>
          </coding>
        </unitOfPresentation>
        <manufacturer>
          <reference value="Organization/man-05de1a64764c002add42fbfd49b6a38d"/>
        </manufacturer>
      </ManufacturedItemDefinition>
    </resource>
  </entry>
</Bundle>