{
  "resourceType" : "Bundle",
  "id" : "545787",
  "meta" : {
    "profile" : ["http://hl7.org/fhir/uv/emedicinal-product-info/StructureDefinition/Bundle-uv-epi"]
  },
  "language" : "no",
  "identifier" : {
    "system" : "https://felleskatalogen.no/vsid",
    "value" : "545787"
  },
  "type" : "document",
  "timestamp" : "2021-01-01T01:01:01Z",
  "entry" : [{
    "fullUrl" : "https://gravitatehealth.eu/fhir/nordic-epi/Composition/545787",
    "resource" : {
      "resourceType" : "Composition",
      "id" : "545787",
      "meta" : {
        "profile" : ["http://hl7.org/fhir/uv/emedicinal-product-info/StructureDefinition/Composition-uv-epi",
        "https://gravitatehealth.eu/fhir/nordic-epi-ig/StructureDefinition/Nordic-ePI-Composition-PIL"]
      },
      "language" : "no",
      "text" : {
        "status" : "generated",
        "div" : "<div xmlns=\"http://www.w3.org/1999/xhtml\" xml:lang=\"no\" lang=\"no\"><a name=\"Composition_545787\"> </a><p><b>Generated Narrative: Composition</b><a name=\"545787\"> </a><a name=\"hc545787\"> </a></p><div style=\"display: inline-block; background-color: #d9e0e7; padding: 6px; margin: 4px; border: 1px solid #8da1b4; border-radius: 5px; line-height: 60%\"><p style=\"margin-bottom: 0px\">Resource Composition &quot;545787&quot;  (Language &quot;no&quot;) </p><p style=\"margin-bottom: 0px\">Profiles: <a href=\"https://build.fhir.org/ig/HL7/emedicinal-product-info//StructureDefinition-Composition-uv-epi.html\">Composition (ePI)</a>, <code>https://gravitatehealth.eu/fhir/nordic-epi-ig/StructureDefinition/Nordic-ePI-Composition-PIL</code></p></div><p><b>identifier</b>: <code>https://felleskatalogen.no/vsid</code>/545787</p><p><b>status</b>: final</p><p><b>type</b>: 100000155538 <span style=\"background: LightGoldenRodYellow; margin: 4px; border: 1px solid khaki\"> (#100000155538)</span></p><p><b>date</b>: 2021-01-01</p><p><b>author</b>: <span><code>https://gravitatehealth.eu/organization</code>/felleskatalogen</span></p><p><b>title</b>: AeroBec Teva</p><hr/><blockquote><p><b>Generated Narrative: Binary #13936050</b><a name=\"13936050\"> </a><a name=\"hc13936050\"> </a></p><p><b>contentType</b>: image/jpeg</p><p><b>data</b>: (base64 data - 33531 bytes)</p></blockquote></div>"
      },
      "contained" : [{
        "resourceType" : "Binary",
        "id" : "13936050",
        "contentType" : "image/jpeg",
        "data" : ""
      }],
      "identifier" : [{
        "system" : "https://felleskatalogen.no/vsid",
        "value" : "545787"
      }],
      "status" : "final",
      "type" : {
        "coding" : [{
          "system" : "https://spor.ema.europa.eu/v1/lists/100000155531/terms/",
          "code" : "100000155538"
        }]
      },
      "subject" : [{
        "reference" : "MedicinalProductDefinition/COPD-MPD-28"
      },
      {
        "reference" : "MedicinalProductDefinition/COPD-MPD-34"
      }],
      "date" : "2021-01-01",
      "author" : [{
        "identifier" : {
          "system" : "https://gravitatehealth.eu/organization",
          "value" : "felleskatalogen"
        }
      }],
      "title" : "AeroBec Teva",
      "section" : [{
        "title" : "Pakningsvedlegg: Informasjon til brukeren",
        "code" : {
          "coding" : [{
            "system" : "https://spor.ema.europa.eu/v1/lists/200000029659/terms/",
            "code" : "200000029894"
          }]
        },
        "text" : {
          "status" : "additional",
          "div" : "<div xmlns=\"http://www.w3.org/1999/xhtml\">\n                     <h1>Pakningsvedlegg: Informasjon til brukeren</h1>\n                     <h2>AeroBec inhalasjonsaerosol, oppløsning 50 mikrog/dose</h2>\n                     <h2>AeroBec inhalasjonsaerosol, oppløsning 100 mikrog/dose</h2>\n                     <h3>beklometasondipropionat</h3>\n                  </div>"
        },
        "section" : [{
          "title" : "Les nøye gjennom dette pakningsvedlegget før du begynner å bruke dette legemidlet. Det inneholder informasjon som er viktig for deg.",
          "code" : {
            "coding" : [{
              "system" : "https://gravitatehealth.eu/section",
              "code" : "rules"
            }]
          },
          "text" : {
            "status" : "additional",
            "div" : "<div xmlns=\"http://www.w3.org/1999/xhtml\">\n                        <h2>Les nøye gjennom dette pakningsvedlegget før du begynner å bruke dette legemidlet. Det inneholder informasjon som er viktig for deg.</h2>\n                        <div class=\"paragraph\">\n                           <ul>\n                              <li>Ta vare på dette pakningsvedlegget. Du kan få behov for å lese det igjen.</li>\n                              <li>Spør lege eller apotek hvis du har flere spørsmål eller trenger mer informasjon.</li>\n                              <li>Dette legemidlet er skrevet ut kun til deg. Ikke gi det videre til andre. Det kan skade dem, selv om de har symptomer på sykdom som ligner dine.</li>\n                              <li>Kontakt lege eller apotek dersom du opplever bivirkninger. Dette gjelder også bivirkninger som ikke er nevnt i pakningsvedlegget. Se avsnitt 4.</li>\n                           </ul>\n                        </div>\n                     </div>"
          }
        },
        {
          "title" : "I dette pakningsvedlegget finner du informasjon om:",
          "code" : {
            "coding" : [{
              "system" : "https://gravitatehealth.eu/section",
              "code" : "toc"
            }]
          },
          "text" : {
            "status" : "additional",
            "div" : "<div xmlns=\"http://www.w3.org/1999/xhtml\">\n                        <h2>I dette pakningsvedlegget finner du informasjon om:</h2>\n                        <div class=\"paragraph\">\n                           <ol>\n                              <li>Hva AeroBec er og hva det brukes mot</li>\n                              <li>Hva du må vite før du bruker AeroBec</li>\n                              <li>Hvordan du bruker AeroBec</li>\n                              <li>Mulige bivirkninger</li>\n                              <li>Hvordan du oppbevarer AeroBec</li>\n                              <li>Innholdet i pakningen og ytterligere informasjon</li>\n                           </ol>\n                        </div>\n                     </div>"
          }
        },
        {
          "title" : "Hva AeroBec er og hva det brukes mot",
          "code" : {
            "coding" : [{
              "system" : "https://spor.ema.europa.eu/v1/lists/200000029659/terms/",
              "code" : "200000029895"
            }]
          },
          "text" : {
            "status" : "additional",
            "div" : "<div xmlns=\"http://www.w3.org/1999/xhtml\">\n                        <h2>Hva AeroBec er og hva det brukes mot</h2>\n                        <div class=\"paragraph\">Beklometasondipropionat er et kortikosteroid som brukes til astmabehandling. Beklometasondipropionat inhalasjonsaerosol virker dypt nede i lungene dine og gjør det lettere å puste ved å redusere hevelse og irritasjon i de små luftveiene. Dette reduserer antall astmaanfall og symptomer på astma, som pustebesvær, piping og følelse av tetthet i brystet.</div>\n                        <div class=\"paragraph\">Denne type medisin er forebyggende. Den må tas regelmessig hver dag, selv om du ikke har symptomer.</div>\n                        <div class=\"paragraph\">AeroBec vil ikke lette symptomene når et anfall av piping og pustebesvær har startet. Da trenger du en annen type medisin, som lindrer og utvider luftveiene under et anfall. Den kan du trygt bruke sammen med AeroBec som du må fortsette å bruke, selv om du har anfall.</div>\n                     </div>"
          }
        },
        {
          "title" : "Hva du må vite før du bruker AeroBec",
          "code" : {
            "coding" : [{
              "system" : "https://spor.ema.europa.eu/v1/lists/200000029659/terms/",
              "code" : "200000029896"
            }]
          },
          "text" : {
            "status" : "additional",
            "div" : "<div xmlns=\"http://www.w3.org/1999/xhtml\">\n                        <h2>Hva du må vite før du bruker AeroBec</h2>\n                     </div>"
          },
          "section" : [{
            "title" : "Bruk ikke AeroBec",
            "code" : {
              "coding" : [{
                "system" : "https://spor.ema.europa.eu/v1/lists/200000029659/terms/",
                "code" : "200000029897"
              }]
            },
            "text" : {
              "status" : "additional",
              "div" : "<div xmlns=\"http://www.w3.org/1999/xhtml\">\n                           <h3>Bruk ikke AeroBec</h3>\n                           <div class=\"paragraph\">\n                              <ul>\n                                 <li>dersom du er allergisk overfor virkestoffet eller noen av de andre innholdsstoffene i dette legemidlet (listet opp i avsnitt 6).</li>\n                              </ul>\n                           </div>\n                        </div>"
            }
          },
          {
            "title" : "Advarsler og forsiktighetsregler",
            "code" : {
              "coding" : [{
                "system" : "https://spor.ema.europa.eu/v1/lists/200000029659/terms/",
                "code" : "200000029898"
              }]
            },
            "text" : {
              "status" : "additional",
              "div" : "<div xmlns=\"http://www.w3.org/1999/xhtml\">\n                           <h3>Advarsler og forsiktighetsregler</h3>\n                           <div class=\"paragraph\">Snakk med lege eller apotek før du bruker AeroBec.</div>\n                           <div class=\"paragraph\">Den individuelle responsen på steroider kan variere. Beklometason, i likhet med andre inhalasjonssteroider, absorberes fra lungene til den systemiske sirkulasjon. Høye doser kan medføre en undertrykking av binyrebarken. Innenfor det anbefalte doseområdet er dette vanligvis ikke noe problem.</div>\n                           <div class=\"paragraph\">Vis forsiktighet ved bruk av AeroBec:<ul>\n                                 <li>Dersom du under behandling må øke forbruket av beta2-agonister med kort virketid for å kontrollere symptomer, tyder dette på en forverring av sykdommen. Du må i slike tilfeller ta kontakt med legen din.</li>\n                                 <li>Dersom du har eller har hatt lungetuberkulose eller andre infeksjoner i lungene, bør du vise forsiktighet ved bruk av AeroBec. Snakk med legen din.</li>\n                                 <li>Dersom du har infeksjoner i munn eller luftveier. Snakk med legen din.</li>\n                                 <li>Dersom du får sammentrekninger/spasmer i luftveiene umiddelbart efter inhalasjon, kontakt lege snarest (se også ”Mulige bivirkninger”)</li>\n                              </ul>\n                           </div>\n                           <div class=\"paragraph\">Vær også oppmerksom på:<br/>AeroBec har <b>ikke </b>effekt på akutte anfall av pustebesvær. <i>AeroBec virker forebyggende og skal tas regelmessig selv om man ikke har besvær. </i>Virkning oppnås først etter noen dagers behandling. Full virkning er avhengig av regelmessig bruk over lengre tid. Hvis virkning ikke oppnås, må lege kontaktes.</div>\n                           <div class=\"paragraph\">\n                              <i>Overgang fra systemisk steroidbehandling.</i>\n                              <br/>Dersom du tidligere har brukt steroidtabletter, kan det være nødvendig å fortsette med disse en kort periode, eller i perioder med stress eller hvor obstruksjon (tiltetting) eller slim vanskeliggjør absorpsjon etter inhalasjon.</div>\n                           <div class=\"paragraph\">Dersom du har brukt steroider i tablettform over lengre perioder og/eller i høye doser, behøver du spesiell oppmerksomhet og oppfølging av lege ved overgang til inhalasjonssteroider. Normalisering av nedsatt binyrebarkfunksjon, forårsaket av langvarig oralt steroidbruk, er langsom. Din astma bør være stabil før inhalasjonssteroider påbegynnes i tillegg til orale steroider, og nedtrapping av orale steroider bør foretas gradvis med 1-2,5 mg prednisolon (eller tilsvarende) med intervaller på minst en uke. Det kan være aktuelt å kontrollere din evne til å produsere kortisol. Man kan i begynnelsen oppleve hodepine, muskel- og leddplager og av og til kvalme og brekninger. Informer i så fall legen din, som vil vurdere alt dette.</div>\n                           <div class=\"paragraph\">Overgang fra orale steroider til inhalasjonssteroider kan avdekke tidligere allergier, som ikke har vært merkbare under behandling.</div>\n                           <div class=\"paragraph\">Kontakt legen din hvis du opplever tåkesyn eller andre synsforstyrrelser.</div>\n                        </div>"
            }
          },
          {
            "title" : "Andre legemidler og AeroBec",
            "code" : {
              "coding" : [{
                "system" : "https://spor.ema.europa.eu/v1/lists/200000029659/terms/",
                "code" : "200000029900"
              }]
            },
            "text" : {
              "status" : "additional",
              "div" : "<div xmlns=\"http://www.w3.org/1999/xhtml\">\n                           <h3>Andre legemidler og AeroBec</h3>\n                           <div class=\"paragraph\">Snakk med lege eller apotek dersom du bruker eller nylig har brukt andre legemidler, dette gjelder også reseptfrie legemidler. Enkelte legemidler kan øke effekten av Aerobec Autohaler, og legen din kan vurdere at det er nødvendig med tett oppfølging hvis du tar denne type legemidler (inkludert enkelte legemidler mot HIV: ritonavir, kobicistat).</div>\n                        </div>"
            }
          },
          {
            "title" : "Graviditet, amming og fertilitet",
            "code" : {
              "coding" : [{
                "system" : "https://spor.ema.europa.eu/v1/lists/200000029659/terms/",
                "code" : "200000029902"
              }]
            },
            "text" : {
              "status" : "additional",
              "div" : "<div xmlns=\"http://www.w3.org/1999/xhtml\">\n                           <h3>Graviditet, amming og fertilitet</h3>\n                           <div class=\"paragraph\">Snakk med lege eller apotek før du tar dette legemidlet dersom du er gravid eller ammer, tror at du kan være gravid eller planlegger å bli gravid.</div>\n                           <div class=\"paragraph\">Det er liten erfaring ved bruk av AeroBec under graviditet. Snakk derfor med lege før bruk av AeroBec dersom du er gravid.</div>\n                           <div class=\"paragraph\">Det er ukjent om AeroBec går over i morsmelk. Snakk derfor med lege før bruk av AeroBec ved amming.</div>\n                        </div>"
            }
          },
          {
            "title" : "Kjøring og bruk av maskiner",
            "code" : {
              "coding" : [{
                "system" : "https://spor.ema.europa.eu/v1/lists/200000029659/terms/",
                "code" : "200000029903"
              }]
            },
            "text" : {
              "status" : "additional",
              "div" : "<div xmlns=\"http://www.w3.org/1999/xhtml\">\n                           <h3>Kjøring og bruk av maskiner</h3>\n                           <div class=\"paragraph\">Legemidlet antas ikke å påvirke evnen til å kjøre bil og bruke maskiner.</div>\n                        </div>"
            }
          },
          {
            "title" : "Aerobec inneholder etanol",
            "code" : {
              "coding" : [{
                "system" : "https://spor.ema.europa.eu/v1/lists/200000029659/terms/",
                "code" : "200000029904"
              }]
            },
            "text" : {
              "status" : "additional",
              "div" : "<div xmlns=\"http://www.w3.org/1999/xhtml\">\n                           <h3>Aerobec inneholder etanol</h3>\n                           <div class=\"paragraph\">Dette legemidlet inneholder 4,74 mg alkohol (etanol) per dose. Mengden per dose av dette legemidlet tilsvarer mindre enn 0,1 ml øl eller 0,05 ml vin.<br/>Mengden alkohol i dette legemidlet er lav og vil ikke gi merkbare effekter.</div>\n                        </div>"
            }
          }]
        },
        {
          "title" : "Hvordan du bruker AeroBec",
          "code" : {
            "coding" : [{
              "system" : "https://spor.ema.europa.eu/v1/lists/200000029659/terms/",
              "code" : "200000029905"
            }]
          },
          "text" : {
            "status" : "additional",
            "div" : "<div xmlns=\"http://www.w3.org/1999/xhtml\">\n                        <h2>Hvordan du bruker AeroBec</h2>\n                        <div class=\"paragraph\">Bruk alltid dette legemidlet nøyaktig slik legen eller apoteket har fortalt deg. Kontakt lege eller apotek hvis du er usikker.</div>\n                        <div class=\"paragraph\">Dosen bestemmes av legen som tilpasser den for deg.</div>\n                        <span class=\"inline-title\">AeroBec 50 mikrog/dose</span>\n                        <div class=\"paragraph\">\n                           <i>Voksne (over 18 år)</i>\n                           <br/>Den anbefalte dosen for mild til moderat astma er 1 dose 2 ganger daglig. Dette kan økes til 4 doser to ganger daglig. For mer alvorlig astma er den anbefalte dosen opptil 8 doser morgen og kveld.<br/>Legen kan forskrive opptil totalt 16 doser pr. dag.</div>\n                        <div class=\"paragraph\">\n                           <i>Barn (over 5 år)</i>\n                           <br/>Den anbefalte dosen for mild astma er 1 dose 2 ganger daglig. Den anbefalte dosen for mer alvorlig astma er 2 doser 2 ganger daglig.<br/>Dette er maksimal dosering for barn.</div>\n                        <span class=\"inline-title\">AeroBec 100 mikrog/dose</span>\n                        <div class=\"paragraph\">\n                           <i>Voksne (over 18 år)</i>\n                           <br/>Den anbefalte dosen for mild til moderat astma er 1 dose 2 ganger daglig. Denne kan økes til 2 doser to ganger daglig.<br/>For mer alvorlig astma er den anbefalte dosen opp til 4 doser morgen og kveld. Legen kan forskrive opptil totalt 8 doser pr. dag.</div>\n                        <div class=\"paragraph\">\n                           <i>Barn (over 5 år)</i>\n                           <br/>Den anbefalte dosen for mer alvorlig astma er 1 dose 2 ganger daglig. Dette er maksimal dosering for barn.</div>\n                        <div class=\"paragraph\">Denne inhalatoren må brukes regelmessig, selv om du føler deg bra. Du må ikke slutte å bruke denne inhalatoren før legen forteller deg det.</div>\n                        <div class=\"paragraph\">Hvis du glemmer å bruke inhalatoren til fastsatt tid, ta den anbefalte dosen så snart du husker det, for så å fortsette med regelmessige doser.<br/>Hvis du tror at din vanlige behandling ikke virker, eller hvis du føler du trenger mer enn maksimalt antall doser per dag, ta kontakt med legen din.<br/>Hvis du ofte tar flere doser enn anbefalt, fortell det til legen.</div>\n                        <span class=\"inline-title\">Bruksanvisning</span>\n                        <div class=\"paragraph\">Sprayen virker noe “bløtere” og varmere enn de “gamle” KFK-holdige sprayer og smaker annerledes. Det finnes to styrker av AeroBec Inhalasjonsaerosol, og legen din har valgt den styrken som passer best for deg. Husk at det er viktig å ta legemidlet slik som legen har fortalt deg. Etiketten skal minne deg på hvor mange doser du skal ta og hvor ofte. Føler du deg usikker på noe, ta kontakt med legen din.<br/>AeroBec er en inhalasjonsaerosol som sørger for at mer av hver dose kommer ned i lungene. Legen din kan derfor ha forskrevet en lavere dose av AeroBec enn av tidligere kortikosteroider du har brukt.</div>\n                        <span class=\"inline-title\">Merk!</span>\n                        <div class=\"paragraph\">\n                           <b>Før bruk / ikke brukt på 2 uker</b>\n                           <br/>Hvis dette er en <b>ny inhalator </b>eller hvis den <b>ikke har vært brukt på 2 uker eller mer</b>, må du teste den før bruk ved å ta beskyttelseshetten av munnstykket og trykke ned beholderen på innsiden av inhalatoren. Trykk 2 puff ut i luften, fra deg.</div>\n                        <span class=\"inline-title\">Hvordan bruke din inhalator</span>\n                        <div class=\"paragraph\">Du trenger ikke riste inhalatoren.<ol>\n                              <li>Ta beskyttelseshetten vekk fra munnstykket.</li>\n                              <li>Pust ut så langt du klarer, plassèr straks munnstykket i munnen og tett leppene godt til rundt det.</li>\n                              <li>Pust sakte og dypt inn gjennom munnen og press ned beholderen inni inhalatoren som vist. Dette utløser en dose legemiddel. Det er viktig at du fortsetter å puste langsomt inn etter at dosen er utløst.</li>\n                              <li>Hold pusten og tell sakte til 5. Pust så sakte ut. Hvis legen har forskrevet mer enn én dose, gjenta pkt.2-4. Etter bruk settes beskyttelseshetten tilbake på munnstykket. Skyll munnen med vann og spytt ut etter avsluttet inhalasjon.</li>\n                           </ol>\n                        </div>\n                        <div class=\"paragraph\">\n                           <img src=\"#13936050\" alt=\"null\"/>\n                        </div>\n                        <span class=\"inline-title\">Hvordan vite når din AeroBec er tom</span>\n                        <div class=\"paragraph\">Ta ut metallbeholderen fra inhalatoren og rist den. Du hører om det er noe igjen. Sett beholderen tilbake på plass.</div>\n                        <span class=\"inline-title\">Rengjøring</span>\n                        <div class=\"paragraph\">For normal hygiene bør munnstykket på inhalatoren din tørkes ukentlig med en ren, tørr klut eller et tørkepapir.<br/>Inhalasjonsaerosolen (det gjelder både beholderen og plastmunnstykket) må ikke komme i kontakt med vann, og den skal <i>ikke </i>vaskes.</div>\n                     </div>"
          },
          "entry" : [{
            "reference" : "#13936050"
          }],
          "section" : [{
            "title" : "Dersom du tar for mye av AeroBec",
            "code" : {
              "coding" : [{
                "system" : "https://spor.ema.europa.eu/v1/lists/200000029659/terms/",
                "code" : "200000029907"
              }]
            },
            "text" : {
              "status" : "additional",
              "div" : "<div xmlns=\"http://www.w3.org/1999/xhtml\">\n                           <h3>Dersom du tar for mye av AeroBec</h3>\n                           <div class=\"paragraph\">Det er viktig at du tar dosen din som angitt på apotekets etikett eller som avtalt med legen din. Du skal ikke øke eller senke dosen din uten å snakke med lege.<br/>Akutt overdosering medfører vanligvis ikke problemer. Det er ikke nødvendig med spesielle tiltak. Fortsett behandlingen med den anbefalte dose for å kontrollere astmaen.<br/>Dersom meget høye doser har vært inntatt over lengre tid, kan kroppens evne til å lage kortisol være nedsatt. I et slikt tilfelle bør pasienten behandles som steroidavhengig og settes på steroidtabletter. Dette avgjøres av legen din.<br/>Når tilstanden er stabilisert, kan inhalasjonsterapi gjenopptas med AeroBec i vanlig dose.</div>\n                        </div>"
            }
          }]
        },
        {
          "title" : "Mulige bivirkninger",
          "code" : {
            "coding" : [{
              "system" : "https://spor.ema.europa.eu/v1/lists/200000029659/terms/",
              "code" : "200000029910"
            }]
          },
          "text" : {
            "status" : "additional",
            "div" : "<div xmlns=\"http://www.w3.org/1999/xhtml\">\n                        <h2>Mulige bivirkninger</h2>\n                        <div class=\"paragraph\">Som alle legemidler kan dette legemidlet forårsake bivirkninger, men ikke alle får det.</div>\n                        <div class=\"paragraph\">Som for annen inhalasjonsbehandling er det en risiko for at kortpustetheten og hvesingen blir verre like etter bruk av AeroBec, og dette kalles <b>paradoksal bronkospasme</b>. Hvis dette oppstår, skal du <b>øyeblikkelig SLUTTE å bruke AeroBec </b>og bruke din hurtigvirkende inhalator med én gang for å behandle symptomene på kortpustethet og hvesing. Kontakt lege umiddelbart.</div>\n                        <div class=\"paragraph\">Kontakt legen din umiddelbart dersom du opplever overfølsomhetsreaksjoner som kløe, utslett, eksem (dermatitt), elveblest, rødme eller hevelse i huden eller slimhinner spesielt i øynene, ansiktet, leppene eller halsen.</div>\n                        <div class=\"paragraph\">Bivirkninger er angitt nedenfor etter hvor hyppig de forekommer.</div>\n                        <div class=\"paragraph\">\n                           <i>Vanlige (forekommer hos færre enn 1 av 10 personer):</i>\n                           <br/>Soppinfeksjoner (i munnen og svelget), heshet, sår hals. Dette kan ofte unngås hvis du skyller munnen med vann og spytter ut, etter bruk av inhalatoren.</div>\n                        <div class=\"paragraph\">\n                           <i>Mindre vanlige (forekommer hos færre enn 1 av 100 personer):</i>\n                           <br/>Hodepine, svimmelhet, hoste, økende astmasymptomer, elveblest, skjelvinger, utslett (eksantem).</div>\n                        <div class=\"paragraph\">\n                           <i>Sjeldne (forekommer hos færre enn 1 av 1000 personer):</i>\n                           <br/>Overfølsomhetsreaksjoner som hevelse i tunge, svelg, leppe eller ansikt (angioødem), utslett, eksem (dermatitt) og kløe, kortpustethet (paradoksal bronkospasme), kvalme.</div>\n                        <div class=\"paragraph\">Bruk av høye doser langtidsvirkende kortikosteroider til inhalasjon over lang tid kan i sjeldne tilfeller gi virkninger som gjelder hele kroppen. Disse omfatter problemer med hvordan binyrene virker (hemming av binyrene), nedsatt mineraltetthet i bein (nedsatt beintetthet), bremsing av veksten hos barn og ungdom, økt trykk i øynene (glaukom), og grå stær.</div>\n                        <div class=\"paragraph\">Følgende bivirkninger med <i>ukjent frekvens</i>, kan også forekomme:<br/>Rastløshet og opphisselse, søvnproblemer, angst, depresjon, aggresjon, adferdsrelaterte endringer og tåkesyn. Barn er mest utsatt for disse effektene.</div>\n                     </div>"
          },
          "section" : [{
            "title" : "Melding av bivirkninger",
            "code" : {
              "coding" : [{
                "system" : "https://spor.ema.europa.eu/v1/lists/200000029659/terms/",
                "code" : "200000029912"
              }]
            },
            "text" : {
              "status" : "additional",
              "div" : "<div xmlns=\"http://www.w3.org/1999/xhtml\">\n                           <h3>Melding av bivirkninger</h3>\n                           <div class=\"paragraph\">Kontakt lege, apotek eller sykepleier dersom du opplever bivirkninger, inkludert mulige bivirkninger som ikke er nevnt\ni dette pakningsvedlegget. Du kan også melde fra om bivirkninger direkte via meldeskjema som finnes på nettsiden til Statens legemiddelverk: \n<a href=\"https://www.legemiddelverket.no/pasientmelding\" title=\"www.legemiddelverket.no/pasientmelding\">www.legemiddelverket.no/pasientmelding</a>. Ved å melde fra om bivirkninger\nbidrar du med informasjon om sikkerheten ved bruk av dette legemidlet.</div>\n                        </div>"
            }
          }]
        },
        {
          "title" : "Hvordan du oppbevarer AeroBec",
          "code" : {
            "coding" : [{
              "system" : "https://spor.ema.europa.eu/v1/lists/200000029659/terms/",
              "code" : "200000029913"
            }]
          },
          "text" : {
            "status" : "additional",
            "div" : "<div xmlns=\"http://www.w3.org/1999/xhtml\">\n                        <h2>Hvordan du oppbevarer AeroBec</h2>\n                        <div class=\"paragraph\">Oppbevares utilgjengelig for barn.<br/>Oppbevares ved romtemperatur (15-30ºC).<br/>Skal ikke oppbevares ved temperaturer over 30ºC.<br/>Unngå oppbevaring i direkte sollys og varme.<br/>Beholderen er under trykk. Stikk ikke hull på den eller brenn den selv, om den synes tom.</div>\n                        <div class=\"paragraph\">Bruk ikke dette legemidlet etter utløpsdatoen som er angitt på pakningen eller etiketten etter EXP. Utløpsdatoen er den siste dagen i den angitte måneden.</div>\n                        <div class=\"paragraph\">Legemidler skal ikke kastes i avløpsvann eller sammen med husholdningsavfall. Spør på apoteket hvordan du skal kaste legemidler som du ikke lenger bruker. Disse tiltakene bidrar til å beskytte miljøet.</div>\n                        <div class=\"paragraph\">Klorfluorkarboner (KFK-gasser) har vist seg å ødelegge ozonlaget i atmosfæren. Din AeroBec inneholder ikke KFK-gasser, den inneholder i stedet et hydrofluoralkan (norfluran) som drivgass.</div>\n                        <div class=\"paragraph\">Hydrofluoralkaner er utviklet for å erstatte KFK-gasser fordi de ikke ødelegger ozonlaget. AeroBec er i motsetning til de fleste inhalasjonsaerosoler en oppløsnings-aerosol og inneholder ikke overflatestabiliserende stoffer. De fleste andre aerosoler har partikler som flyter i væsken, dvs. en suspensjon. Det er ikke nødvendig å riste AeroBec-aerosolen før bruk, og flere inhalasjoner kan tas fortløpende. AeroBec fungerer stabilt i temperaturer ned til -10ºC. Doseringsnøyaktigheten påvirkes ikke av om aerosolen oppbevares liggende eller stående.</div>\n                     </div>"
          }
        },
        {
          "title" : "Innholdet i pakningen og ytterligere informasjon",
          "code" : {
            "coding" : [{
              "system" : "https://spor.ema.europa.eu/v1/lists/200000029659/terms/",
              "code" : "200000029914"
            }]
          },
          "text" : {
            "status" : "additional",
            "div" : "<div xmlns=\"http://www.w3.org/1999/xhtml\">\n                        <h2>Innholdet i pakningen og ytterligere informasjon</h2>\n                     </div>"
          },
          "section" : [{
            "title" : "Sammensetning av AeroBec",
            "code" : {
              "coding" : [{
                "system" : "https://spor.ema.europa.eu/v1/lists/200000029659/terms/",
                "code" : "200000029915"
              }]
            },
            "text" : {
              "status" : "additional",
              "div" : "<div xmlns=\"http://www.w3.org/1999/xhtml\">\n                           <h3>Sammensetning av AeroBec</h3>\n                           <div class=\"paragraph\">\n                              <ul>\n                                 <li>Virkestoff(er) er beklometasondipropionat</li>\n                                 <li>Andre innholdsstoffer er etanol og norfluran (freonfri drivgass)</li>\n                              </ul>\n                           </div>\n                        </div>"
            }
          },
          {
            "title" : "Hvordan AeroBec ser ut og innholdet i pakningen",
            "code" : {
              "coding" : [{
                "system" : "https://spor.ema.europa.eu/v1/lists/200000029659/terms/",
                "code" : "200000029916"
              }]
            },
            "text" : {
              "status" : "additional",
              "div" : "<div xmlns=\"http://www.w3.org/1999/xhtml\">\n                           <h3>Hvordan AeroBec ser ut og innholdet i pakningen</h3>\n                           <div class=\"paragraph\">Beholderen inneholder 200 doser.</div>\n                           <div class=\"paragraph\">Inhalatoren utløser en aerosol som gir høy deponering av legemiddel i lungene. Det er mulig fordi preparatet er en oppløsning.</div>\n                        </div>"
            }
          },
          {
            "title" : "Innehaver av markedsføringstillatelsen og tilvirker",
            "code" : {
              "coding" : [{
                "system" : "https://spor.ema.europa.eu/v1/lists/200000029659/terms/",
                "code" : "200000029917"
              }]
            },
            "text" : {
              "status" : "additional",
              "div" : "<div xmlns=\"http://www.w3.org/1999/xhtml\">\n                           <h3>Innehaver av markedsføringstillatelsen og tilvirker</h3>\n                           <span class=\"inline-title\">Innehaver av markedsføringstillatelsen:</span>\n                           <div class=\"paragraph\">Teva Sweden AB, Box 1070, SE - 251 10 Helsingborg, Sverige.</div>\n                           <span class=\"inline-title\">Tilvirker:</span>\n                           <div class=\"paragraph\">Norton (Waterford) Limited T/A Teva Pharmaceuticals Ireland<br/>Unit 27/35 IDA Industrial Park, Cork Road, Waterford, Irland</div>\n                           <span class=\"inline-title\">For ytterligere informasjon kontakt:</span>\n                           <div class=\"paragraph\">Teva Norway AS<br/>Kinoveien 3A<br/>1337 Sandvika<br/>Tlf: 66 77 55 90<br/>\n                              <a href=\"mailto:info@tevapharm.no\" title=\"info@tevapharm.no\">info@tevapharm.no</a>\n                           </div>\n                        </div>"
            }
          },
          {
            "title" : "Dette pakningsvedlegget ble sist oppdatert: 01.01.2021",
            "code" : {
              "coding" : [{
                "system" : "https://spor.ema.europa.eu/v1/lists/200000029659/terms/",
                "code" : "200000029919"
              }]
            },
            "text" : {
              "status" : "additional",
              "div" : "<div xmlns=\"http://www.w3.org/1999/xhtml\">\n                           <h3>Dette pakningsvedlegget ble sist oppdatert: 01.01.2021</h3>\n                        </div>"
            }
          },
          {
            "title" : "Andre informasjonskilder",
            "code" : {
              "coding" : [{
                "system" : "https://spor.ema.europa.eu/v1/lists/200000029659/terms/",
                "code" : "200000029920"
              }]
            },
            "text" : {
              "status" : "additional",
              "div" : "<div xmlns=\"http://www.w3.org/1999/xhtml\">\n                           <div class=\"paragraph\">Detaljert informasjon om dette legemidlet er tilgjengelig på nettstedet til <a href=\"http://www.felleskatalogen.no/\" title=\"\n               \n                  www.felleskatalogen.no\n               \n            \">\n               \n                  www.felleskatalogen.no\n               \n            </a>\n                           </div>\n                        </div>"
            }
          }]
        }]
      }]
    }
  },
  {
    "fullUrl" : "https://gravitatehealth.eu/fhir/nordic-epi/MedicinalProductDefinition/COPD-MPD-28",
    "resource" : {
      "resourceType" : "MedicinalProductDefinition",
      "id" : "COPD-MPD-28",
      "meta" : {
        "profile" : ["http://hl7.org/fhir/uv/emedicinal-product-info/StructureDefinition/MedicinalProductDefinition-uv-epi",
        "https://gravitatehealth.eu/fhir/nordic-epi-ig/StructureDefinition/Nordic-ePI-MedicinalProductDefinition"]
      },
      "text" : {
        "status" : "generated",
        "div" : "<div xmlns=\"http://www.w3.org/1999/xhtml\"><a name=\"MedicinalProductDefinition_COPD-MPD-28\"> </a><p><b>Generated Narrative: MedicinalProductDefinition</b><a name=\"COPD-MPD-28\"> </a><a name=\"hcCOPD-MPD-28\"> </a></p><div style=\"display: inline-block; background-color: #d9e0e7; padding: 6px; margin: 4px; border: 1px solid #8da1b4; border-radius: 5px; line-height: 60%\"><p style=\"margin-bottom: 0px\">Resource MedicinalProductDefinition &quot;COPD-MPD-28&quot; </p><p style=\"margin-bottom: 0px\">Profiles: <a href=\"https://build.fhir.org/ig/HL7/emedicinal-product-info//StructureDefinition-MedicinalProductDefinition-uv-epi.html\">MedicinalProductDefinition (ePI)</a>, <code>https://gravitatehealth.eu/fhir/nordic-epi-ig/StructureDefinition/Nordic-ePI-MedicinalProductDefinition</code></p></div><p><b>identifier</b>: <code>http://legemiddelverket.no/FEST/LegemiddelMerkevareID</code>/ID_4DE5B13A-4C84-4A3F-9733-91D1F9CA2AA7</p><h3>Names</h3><table class=\"grid\"><tr><td style=\"display: none\">-</td><td><b>ProductName</b></td></tr><tr><td style=\"display: none\">*</td><td>Aerobec inh aerosol, oppl 100 mikrog/dose</td></tr></table></div>"
      },
      "identifier" : [{
        "system" : "http://legemiddelverket.no/FEST/LegemiddelMerkevareID",
        "value" : "ID_4DE5B13A-4C84-4A3F-9733-91D1F9CA2AA7"
      }],
      "name" : [{
        "productName" : "Aerobec inh aerosol, oppl 100 mikrog/dose"
      }]
    }
  },
  {
    "fullUrl" : "https://gravitatehealth.eu/fhir/nordic-epi/PackagedProductDefinition/COPD-PPD-37",
    "resource" : {
      "resourceType" : "PackagedProductDefinition",
      "id" : "COPD-PPD-37",
      "meta" : {
        "profile" : ["http://hl7.org/fhir/uv/emedicinal-product-info/StructureDefinition/PackagedProductDefinition-uv-epi",
        "https://gravitatehealth.eu/fhir/nordic-epi-ig/StructureDefinition/Nordic-ePI-PackagedProductDefinition"]
      },
      "text" : {
        "status" : "generated",
        "div" : "<div xmlns=\"http://www.w3.org/1999/xhtml\"><a name=\"PackagedProductDefinition_COPD-PPD-37\"> </a><p><b>Generated Narrative: PackagedProductDefinition</b><a name=\"COPD-PPD-37\"> </a><a name=\"hcCOPD-PPD-37\"> </a></p><div style=\"display: inline-block; background-color: #d9e0e7; padding: 6px; margin: 4px; border: 1px solid #8da1b4; border-radius: 5px; line-height: 60%\"><p style=\"margin-bottom: 0px\">Resource PackagedProductDefinition &quot;COPD-PPD-37&quot; </p><p style=\"margin-bottom: 0px\">Profiles: <a href=\"https://build.fhir.org/ig/HL7/emedicinal-product-info//StructureDefinition-PackagedProductDefinition-uv-epi.html\">PackagedProductDefinition (ePI)</a>, <code>https://gravitatehealth.eu/fhir/nordic-epi-ig/StructureDefinition/Nordic-ePI-PackagedProductDefinition</code></p></div><p><b>identifier</b>: <code>http://legemiddelverket.no/FEST/LegemiddelPakningID</code>/ID_8F7CDDB7-E333-4839-AEFA-4341173C3A6B, <code>https://farmalogg.no/varenummer</code>/378792</p><p><b>name</b>: Aerobec inh aerosol, oppl 100 mikrog/dose</p><p><b>packageFor</b>: <a href=\"#MedicinalProductDefinition_COPD-MPD-28\">See above (MedicinalProductDefinition/COPD-MPD-28)</a></p></div>"
      },
      "identifier" : [{
        "system" : "http://legemiddelverket.no/FEST/LegemiddelPakningID",
        "value" : "ID_8F7CDDB7-E333-4839-AEFA-4341173C3A6B"
      },
      {
        "system" : "https://farmalogg.no/varenummer",
        "value" : "378792"
      }],
      "name" : "Aerobec inh aerosol, oppl 100 mikrog/dose",
      "packageFor" : [{
        "reference" : "MedicinalProductDefinition/COPD-MPD-28"
      }]
    }
  },
  {
    "fullUrl" : "https://gravitatehealth.eu/fhir/nordic-epi/MedicinalProductDefinition/COPD-MPD-34",
    "resource" : {
      "resourceType" : "MedicinalProductDefinition",
      "id" : "COPD-MPD-34",
      "meta" : {
        "profile" : ["http://hl7.org/fhir/uv/emedicinal-product-info/StructureDefinition/MedicinalProductDefinition-uv-epi",
        "https://gravitatehealth.eu/fhir/nordic-epi-ig/StructureDefinition/Nordic-ePI-MedicinalProductDefinition"]
      },
      "text" : {
        "status" : "generated",
        "div" : "<div xmlns=\"http://www.w3.org/1999/xhtml\"><a name=\"MedicinalProductDefinition_COPD-MPD-34\"> </a><p><b>Generated Narrative: MedicinalProductDefinition</b><a name=\"COPD-MPD-34\"> </a><a name=\"hcCOPD-MPD-34\"> </a></p><div style=\"display: inline-block; background-color: #d9e0e7; padding: 6px; margin: 4px; border: 1px solid #8da1b4; border-radius: 5px; line-height: 60%\"><p style=\"margin-bottom: 0px\">Resource MedicinalProductDefinition &quot;COPD-MPD-34&quot; </p><p style=\"margin-bottom: 0px\">Profiles: <a href=\"https://build.fhir.org/ig/HL7/emedicinal-product-info//StructureDefinition-MedicinalProductDefinition-uv-epi.html\">MedicinalProductDefinition (ePI)</a>, <code>https://gravitatehealth.eu/fhir/nordic-epi-ig/StructureDefinition/Nordic-ePI-MedicinalProductDefinition</code></p></div><p><b>identifier</b>: <code>http://legemiddelverket.no/FEST/LegemiddelMerkevareID</code>/ID_8DCB732B-F555-4A8A-81B9-519FA22CFC51</p><h3>Names</h3><table class=\"grid\"><tr><td style=\"display: none\">-</td><td><b>ProductName</b></td></tr><tr><td style=\"display: none\">*</td><td>Aerobec inh aerosol, oppl 50 mikrog/dose</td></tr></table></div>"
      },
      "identifier" : [{
        "system" : "http://legemiddelverket.no/FEST/LegemiddelMerkevareID",
        "value" : "ID_8DCB732B-F555-4A8A-81B9-519FA22CFC51"
      }],
      "name" : [{
        "productName" : "Aerobec inh aerosol, oppl 50 mikrog/dose"
      }]
    }
  },
  {
    "fullUrl" : "https://gravitatehealth.eu/fhir/nordic-epi/PackagedProductDefinition/COPD-PPD-46",
    "resource" : {
      "resourceType" : "PackagedProductDefinition",
      "id" : "COPD-PPD-46",
      "meta" : {
        "profile" : ["http://hl7.org/fhir/uv/emedicinal-product-info/StructureDefinition/PackagedProductDefinition-uv-epi",
        "https://gravitatehealth.eu/fhir/nordic-epi-ig/StructureDefinition/Nordic-ePI-PackagedProductDefinition"]
      },
      "text" : {
        "status" : "generated",
        "div" : "<div xmlns=\"http://www.w3.org/1999/xhtml\"><a name=\"PackagedProductDefinition_COPD-PPD-46\"> </a><p><b>Generated Narrative: PackagedProductDefinition</b><a name=\"COPD-PPD-46\"> </a><a name=\"hcCOPD-PPD-46\"> </a></p><div style=\"display: inline-block; background-color: #d9e0e7; padding: 6px; margin: 4px; border: 1px solid #8da1b4; border-radius: 5px; line-height: 60%\"><p style=\"margin-bottom: 0px\">Resource PackagedProductDefinition &quot;COPD-PPD-46&quot; </p><p style=\"margin-bottom: 0px\">Profiles: <a href=\"https://build.fhir.org/ig/HL7/emedicinal-product-info//StructureDefinition-PackagedProductDefinition-uv-epi.html\">PackagedProductDefinition (ePI)</a>, <code>https://gravitatehealth.eu/fhir/nordic-epi-ig/StructureDefinition/Nordic-ePI-PackagedProductDefinition</code></p></div><p><b>identifier</b>: <code>http://legemiddelverket.no/FEST/LegemiddelPakningID</code>/ID_83D3902F-CAC1-44BB-8EB2-0783C7911863, <code>https://farmalogg.no/varenummer</code>/052957</p><p><b>name</b>: Aerobec inh aerosol, oppl 50 mikrog/dose</p><p><b>packageFor</b>: <a href=\"#MedicinalProductDefinition_COPD-MPD-34\">See above (MedicinalProductDefinition/COPD-MPD-34)</a></p></div>"
      },
      "identifier" : [{
        "system" : "http://legemiddelverket.no/FEST/LegemiddelPakningID",
        "value" : "ID_83D3902F-CAC1-44BB-8EB2-0783C7911863"
      },
      {
        "system" : "https://farmalogg.no/varenummer",
        "value" : "052957"
      }],
      "name" : "Aerobec inh aerosol, oppl 50 mikrog/dose",
      "packageFor" : [{
        "reference" : "MedicinalProductDefinition/COPD-MPD-34"
      }]
    }
  }]
}