<?xml version="1.0" encoding="UTF-8"?>

<Bundle xmlns="http://hl7.org/fhir">
  <id value="86169"/>
  <meta>
    <profile value="http://hl7.org/fhir/uv/emedicinal-product-info/StructureDefinition/Bundle-uv-epi"/>
  </meta>
  <language value="fi"/>
  <identifier>
    <system value="https://pharmaca.fi/documentId"/>
    <value value="86169"/>
  </identifier>
  <type value="document"/>
  <timestamp value="2023-11-23T12:49:58Z"/>
  <entry>
    <fullUrl value="https://gravitatehealth.eu/fhir/nordic-epi/Composition/86169"/>
    <resource>
      <Composition>
        <id value="86169"/>
        <meta>
          <profile value="http://hl7.org/fhir/uv/emedicinal-product-info/StructureDefinition/Composition-uv-epi"/>
          <profile value="https://gravitatehealth.eu/fhir/nordic-epi-ig/StructureDefinition/Nordic-ePI-Composition-PIL"/>
        </meta>
        <language value="fi"/>
        <text>
          <status value="generated"/><div xmlns="http://www.w3.org/1999/xhtml" xml:lang="fi" lang="fi"><a name="Composition_86169"> </a><p><b>Generated Narrative: Composition</b><a name="86169"> </a><a name="hc86169"> </a></p><div style="display: inline-block; background-color: #d9e0e7; padding: 6px; margin: 4px; border: 1px solid #8da1b4; border-radius: 5px; line-height: 60%"><p style="margin-bottom: 0px">Resource Composition &quot;86169&quot;  (Language &quot;fi&quot;) </p><p style="margin-bottom: 0px">Profiles: <a href="https://build.fhir.org/ig/HL7/emedicinal-product-info//StructureDefinition-Composition-uv-epi.html">Composition (ePI)</a>, <code>https://gravitatehealth.eu/fhir/nordic-epi-ig/StructureDefinition/Nordic-ePI-Composition-PIL</code></p></div><p><b>identifier</b>: <code>https://pharmaca.fi/documentId</code>/86169</p><p><b>status</b>: final</p><p><b>type</b>: 100000155538 <span style="background: LightGoldenRodYellow; margin: 4px; border: 1px solid khaki"> (#100000155538)</span></p><p><b>date</b>: 2023-11-23 12:49:58+0000</p><p><b>author</b>: <span><code>https://gravitatehealth.eu/organization</code>/Pharmaca Health Intelligence Oy</span></p><p><b>title</b>: JANUMET tabletti, kalvopäällysteinen 50/850 mg, 50/1000 mg</p></div>
        </text>
        <identifier>
          <system value="https://pharmaca.fi/documentId"/>
          <value value="86169"/>
        </identifier>
        <status value="final"/>
        <type>
          <coding>
            <system value="https://spor.ema.europa.eu/v1/lists/100000155531/terms/"/>
            <code value="100000155538"/>
          </coding>
        </type>
        <subject>
          <reference value="MedicinalProductDefinition/Diabetes-MPD-52"/>
        </subject>
        <subject>
          <reference value="MedicinalProductDefinition/Diabetes-MPD-54"/>
        </subject>
        <date value="2023-11-23T12:49:58Z"/>
        <author>
          <identifier>
            <system value="https://gravitatehealth.eu/organization"/>
            <value value="Pharmaca Health Intelligence Oy"/>
          </identifier>
        </author>
        <title value="JANUMET tabletti, kalvopäällysteinen 50/850 mg, 50/1000 mg"/>
        <section>
          <title value="Lisätietoa"/>
          <code>
            <coding>
              <system value="https://spor.ema.europa.eu/v1/lists/200000029659/terms/"/>
              <code value="200000029894"/>
            </coding>
          </code>
          <text>
            <status value="additional"/><div xmlns="http://www.w3.org/1999/xhtml">
                     <p>
                        <strong>Janumet 50 mg/850 mg kalvopäällysteiset tabletit<br/>
Janumet 50 mg/1000 mg kalvopäällysteiset tabletit</strong>
                        <br/>
sitagliptiini/metformiinihydrokloridi</p>
                  </div>
          </text>
          <section>
            <title value="Yleisiä ohjeita"/>
            <code>
              <coding>
                <system value="https://gravitatehealth.eu/section"/>
                <code value="rules"/>
              </coding>
            </code>
            <text>
              <status value="additional"/><div xmlns="http://www.w3.org/1999/xhtml">
                        <h2>Yleisiä ohjeita</h2>
                        <p>
                           <strong>Lue tämä pakkausseloste huolellisesti ennen kuin aloitat tämän lääkkeen ottamisen, sillä se sisältää sinulle tärkeitä tietoja.</strong>
                        </p>
                        <ul>
                           <li>Säilytä tämä pakkausseloste. Voit tarvita sitä myöhemmin.</li>
                           <li>Jos sinulla on kysyttävää, käänny lääkärin, apteekkihenkilökunnan tai sairaanhoitajan puoleen.</li>
                           <li>Tämä lääke on määrätty vain sinulle eikä sitä pidä antaa muiden käyttöön. Se voi aiheuttaa haittaa muille, vaikka heillä olisikin samanlaiset oireet kuin sinulla. </li>
                           <li>Jos havaitset haittavaikutuksia, kerro niistä lääkärille, apteekkihenkilökunnalle tai sairaanhoitajalle. Tämä koskee myös sellaisia mahdollisia haittavaikutuksia, joita ei ole mainittu tässä pakkausselosteessa. Ks. kohta <a class="cross-reference">Mahdolliset haittavaikutukset</a>.</li>
                        </ul>
                     </div>
            </text>
          </section>
          <section>
            <title value="Tässä pakkausselosteessa kerrotaan"/>
            <code>
              <coding>
                <system value="https://gravitatehealth.eu/section"/>
                <code value="toc"/>
              </coding>
            </code>
            <text>
              <status value="additional"/><div xmlns="http://www.w3.org/1999/xhtml">
                        <h2>Tässä pakkausselosteessa kerrotaan</h2>
                        <p>1. Mitä Janumet on ja mihin sitä käytetään<br/>
2. Mitä sinun on tiedettävä, ennen kuin otat Janumet-valmistetta<br/>
3. Miten Janumet-valmistetta otetaan<br/>
4. Mahdolliset haittavaikutukset<br/>
5. Janumet-valmisteen säilyttäminen<br/>
6. Pakkauksen sisältö ja muuta tietoa</p>
                     </div>
            </text>
          </section>
          <section>
            <title value="Mitä valmiste on ja mihin sitä käytetään"/>
            <code>
              <coding>
                <system value="https://spor.ema.europa.eu/v1/lists/200000029659/terms/"/>
                <code value="200000029895"/>
              </coding>
            </code>
            <text>
              <status value="additional"/><div xmlns="http://www.w3.org/1999/xhtml">
                        <h2>Mitä valmiste on ja mihin sitä käytetään</h2>
                        <p>Janumet sisältää kahta eri lääkeainetta, sitagliptiinia ja metformiinia.</p>
                        <ul>
                           <li>sitagliptiini kuuluu DPP-4-estäjiksi (dipeptidyylipeptidaasi 4:n estäjiksi) kutsuttujen lääkeaineiden ryhmään</li>
                           <li>metformiini kuuluu biguanideiksi kutsuttujen lääkeaineiden ryhmään.</li>
                        </ul>
                        <p>Nämä lääkeaineet yhdessä auttavat pitämään verensokeriarvot hallinnassa tyypin 2 diabetesta sairastavilla aikuisilla potilailla. Tämä lääke auttaa nostamaan aterianjälkeisiä insuliinipitoisuuksia ja vähentää elimistön tuottaman sokerin määrää.</p>
                        <p>Janumet auttaa alentamaan verensokeriasi yhdessä ruokavalion ja liikunnan kanssa. Tätä lääkettä voidaan käyttää yksinään tai yhdessä tiettyjen muiden diabeteslääkkeiden (insuliinin, sulfonyyliureoiden tai glitatsonien) kanssa.</p>
                        <p>Mikä on tyypin 2 diabetes?</p>
                        <p>Tyypin 2 diabetes on sairaus, jossa elimistö ei tuota riittävästi insuliinia ja jossa elimistön tuottama insuliini ei vaikuta niin hyvin kuin sen pitäisi. Elimistösi voi myös tuottaa liian paljon sokeria, jolloin sokeria (glukoosia) kertyy vereen. Tämä voi johtaa vakaviin sairauksiin, kuten sydän- tai munuaissairauksiin, sokeuteen tai amputaatioon.</p>
                     </div>
            </text>
          </section>
          <section>
            <title value="Mitä sinun on tiedettävä ennen valmisteen käyttöä"/>
            <code>
              <coding>
                <system value="https://spor.ema.europa.eu/v1/lists/200000029659/terms/"/>
                <code value="200000029896"/>
              </coding>
            </code>
            <text>
              <status value="additional"/><div xmlns="http://www.w3.org/1999/xhtml">
                        <h2>Mitä sinun on tiedettävä ennen valmisteen käyttöä</h2>
                        <p>
                           <strong>Älä ota Janumet-valmistetta</strong>
                        </p>
                        <ul>
                           <li>jos olet allerginen sitagliptiinille tai metformiinille tai tämän lääkkeen jollekin muulle aineelle (lueteltu kohdassa <a class="cross-reference">Pakkauksen sisältö ja muuta tietoa</a>)</li>
                           <li>jos sinulla on vaikea munuaisten vajaatoiminta</li>
                           <li>jos sinulla on huonossa hoitotasapainossa oleva diabetes ja esimerkiksi vaikeaa hyperglykemiaa (korkeita verensokeriarvoja), pahoinvointia, oksentelua, ripulia, nopeaa laihtumista, maitohappoasidoosi (ks. ”Maitohappoasidoosin riski” jäljempänä) tai ketoasidoosi. Ketoasidoosi on tila, jossa vereen kertyy ketoaineita. Se voi johtaa diabeettiseen prekoomaan. Oireita ovat mahakipu, nopea ja syvä hengitys, uneliaisuus tai hengityksen poikkeava, hedelmäinen haju.</li>
                           <li>jos sinulla on vaikea infektio tai nestevajaus</li>
                           <li>jos olet menossa varjoainekuvaukseen, jossa sinulle annetaan varjoainetta suoneen. Munuaistesi toiminnasta riippuen sinun on lopetettava Janumetin käyttö kuvauksen ajaksi sekä kahden tai useamman päivän ajaksi sen jälkeen, lääkärin ohjeen mukaan</li>
                           <li>jos sinulla on äskettäin ollut sydänkohtaus tai jos sinulla on vaikeita verenkiertohäiriöitä, kuten shokki tai hengitysvaikeuksia</li>
                           <li>jos sinulla on maksasairaus</li>
                           <li>jos käytät runsaasti alkoholia (joko joka päivä tai vain ajoittain)</li>
                           <li>jos imetät.</li>
                        </ul>
                        <p>Älä ota Janumetia, jos jokin ylläolevista koskee sinua, ja keskustele lääkärin kanssa muista diabeteksen hoitotavoista. Jos olet epävarma, keskustele lääkärin, apteekkihenkilökunnan tai sairaanhoitajan kanssa ennen Janumetin ottamista.</p>
                        <p>
                           <strong>Varoitukset ja varotoimet</strong>
                           <br/>
Janumetia saaneilla potilailla on raportoitu esiintyneen haimatulehdusta (pankreatiittia) (ks. kohta <a class="cross-reference">Mahdolliset haittavaikutukset</a>).</p>
                        <p>Jos huomaat rakkuloita iholla, ne voivat olla merkki sairaudesta, jota kutsutaan rakkulaiseksi pemfigoidiksi. Lääkäri voi pyytää sinua lopettamaan Janumetin käytön.</p>
                        <p>
                           <strong>
                              <span class="underline">Maitohappoasidoosin riski</span>
                           </strong>
                           <br/>
Janumet voi aiheuttaa hyvin harvinaisena, mutta hyvin vakavana haittavaikutuksena maitohappoasidoosia etenkin, jos munuaiset eivät toimi kunnolla. Maitohappoasidoosin riskiä suurentavat myös huonossa hoitotasapainossa oleva diabetes, vakavat infektiot, pitkittynyt paasto tai alkoholinkäyttö, nestehukka (ks. lisätiedot alta), maksavaivat ja sairaudet, joissa jonkin alueen hapensaanti on heikentynyt (esim. akuutti, vaikea sydäntauti).<br/>
Jos jokin edellä mainituista koskee sinua, pyydä lisäohjeita lääkäriltä.</p>
                        <p>
                           <strong>Janumet-valmisteen käyttö on tauotettava joksikin aikaa, jos sinulla on jokin tila, johon voi liittyä nestehukkaa</strong> (merkittävää nesteiden menetystä). Tällaisia ovat esimerkiksi vaikea oksentelu, ripuli tai kuume, kuumuudelle altistuminen tai normaalia vähäisempi juominen. Pyydä lisäohjeita lääkäriltä.</p>
                        <p>
                           <strong>Lopeta Janumet-valmisteen käyttö ja ota heti yhteys lääkäriin tai lähimpään sairaalaan, jos sinulla on maitohappoasidoosin oireita</strong>, sillä maitohappoasidoosi voi johtaa koomaan.</p>
                        <p>Maitohappoasidoosin oireita ovat:</p>
                        <ul>
                           <li>oksentelu</li>
                           <li>vatsakipu</li>
                           <li>lihaskrampit</li>
                           <li>yleinen sairaudentunne ja vaikea väsymys</li>
                           <li>hengitysvaikeudet</li>
                           <li>ruumiinlämmön lasku ja sykkeen hidastuminen.</li>
                        </ul>
                        <p>Maitohappoasidoosi on lääketieteellinen hätätilanne ja vaatii sairaalahoitoa.</p>
                        <p>Keskustele lääkärin tai apteekkihenkilökunnan kanssa ennen kuin otat Janumet-valmistetta:</p>
                        <p>-         jos sinulla on tai on ollut haimasairaus (esim. haimatulehdus)</p>
                        <p>-         jos sinulla on tai on ollut sappikiviä, alkoholiriippuvuutta tai hyvin korkeat veren triglyseridiarvot (eräs rasvan muoto). Nämä tilat voivat lisätä haimatulehduksen mahdollisuutta (ks. kohta <a class="cross-reference">Mahdolliset haittavaikutukset</a>).</p>
                        <p>-         jos sinulla on tyypin 1 diabetes, jota kutsutaan joskus myös insuliinista riippuvaiseksi diabetekseksi</p>
                        <p>-         jos sinulla on tai on ollut allergisia reaktioita sitagliptiinille, metformiinille tai Janumetille (ks. kohta <a class="cross-reference">Mahdolliset haittavaikutukset</a>)</p>
                        <p>-         jos käytät sulfonyyliureaa tai insuliinia, diabeteslääkkeitä, yhdessä Janumetin kanssa, koska sinulla voi esiintyä alhaista verensokeria (hypoglykemiaa). Lääkäri voi pienentää sulfonyyliurea- tai insuliiniannostasi.</p>
                        <p>Jos olet menossa suureen leikkaukseen, Janumet-valmisteen käyttö on tauotettava toimenpiteen ajaksi ja joksikin aikaa sen jälkeen. Lääkäri päättää, milloin Janumet-hoito lopetetaan ja milloin se aloitetaan uudelleen.</p>
                        <p>Keskustele lääkärin tai apteekkihenkilökunnan kanssa ennen Janumet-valmisteen ottamista, jos olet epävarma, koskeeko jokin ylläolevista sinua.</p>
                        <p>Janumet-hoidon aikana lääkäri seuraa munuaistoimintaasi vähintään kerran vuodessa tai useammin, jos olet iäkäs ja/tai jos munuaistoimintasi huonontuu.</p>
                        <p>
                           <strong>Lapset ja nuoret</strong>
                           <br/>
Alle 18-vuotiaiden lasten ja nuorten ei pidä käyttää tätä lääkettä. Se ei ole tehokas 10–17‑vuotiailla lapsilla ja nuorilla. Tämän lääkkeen turvallisuudesta ja tehosta alle 10‑vuotiailla lapsilla ei ole tietoa.</p>
                        <p>
                           <strong>Muut lääkevalmisteet ja Janumet</strong>
                           <br/>
Jos sinulle annetaan jodia sisältävä varjoainepistos verisuoneen esimerkiksi röntgenkuvauksen tai muun kuvantamisen yhteydessä, Janumet-valmisteen käyttö on tauotettava ennen varjoainepistosta tai pistoksen yhteydessä. Lääkäri päättää, milloin Janumet-hoito lopetetaan ja milloin se aloitetaan uudelleen.</p>
                        <p>Kerro lääkärille tai apteekkihenkilökunnalle, jos parhaillaan otat, olet äskettäin ottanut tai saatat ottaa muita lääkkeitä. Verensokeria ja munuaistoimintaa on ehkä seurattava tiheämmin tai lääkärin on ehkä muutettava Janumet-lääkkeen annosta. On erityisen tärkeää mainita seuraavien lääkkeiden käytöstä:</p>
                        <ul>
                           <li>suun kautta, inhalaationa tai injektiona otettavat lääkkeet, joita käytetään tulehduksellisten sairauksien, kuten astman ja nivelrikon hoitoon (kortikosteroidit)</li>
                           <li>virtsaneritystä lisäävät nesteenpoistolääkkeet</li>
                           <li>kivun ja tulehduksen hoitoon käytettävät lääkkeet (tulehduskipulääkkeet ja COX-2-estäjät kuten ibuprofeeni ja selekoksibi)</li>
                           <li>tietyt verenpainelääkkeet (ACE:n estäjät ja angiotensiini II ‑reseptorin salpaajat)</li>
                           <li>tietyt keuhkoastman hoitoon käytettävät lääkkeet (beetasympatomimeetit)</li>
                           <li>jodia sisältävät varjoaineet tai alkoholia sisältävät lääkkeet</li>
                           <li>tietyt vatsavaivojen hoitoon käytettävät lääkkeet, kuten simetidiini</li>
                           <li>ranolatsiini, joka on angina pectoriksen hoitoon käytettävä lääke</li>
                           <li>dolutegraviiri, joka on HIV-infektion hoitoon käytettävä lääke</li>
                           <li>vandetanibi, joka on tietyn tyyppisen kilpirauhassyövän (medullaarisen kilpirauhassyövän) hoitoon käytettävä lääke</li>
                           <li>digoksiini (käytetään sydämen epäsäännöllisen sykkeen ja muiden sydänongelmien hoitoon). Veren digoksiinipitoisuutta saatetaan joutua tarkistamaan, jos Janumetia käytetään samanaikaisesti.</li>
                        </ul>
                        <p>
                           <strong>Janumet alkoholin kanssa</strong>
                           <br/>
Vältä liiallista alkoholinkäyttöä Janumet-hoidon aikana, sillä se voi suurentaa maitohappoasidoosin riskiä (ks. kohta ”Varoitukset ja varotoimet”).</p>
                        <p>
                           <strong>Raskaus ja imetys</strong>
                           <br/>
Jos olet raskaana tai imetät, epäilet olevasi raskaana tai jos suunnittelet lapsen hankkimista, kysy lääkäriltä tai apteekista neuvoa ennen tämän lääkkeen käyttöä. Älä ota tätä lääkettä raskauden aikana. Älä ota tätä lääkettä, jos imetät. Katso kohta <a class="cross-reference">Mitä sinun on tiedettävä ennen valmisteen käyttöä</a>, <strong>Älä ota Janumet-valmistetta.</strong>
                        </p>
                        <p>
                           <strong>Ajaminen ja koneiden käyttö</strong>
                           <br/>
Tällä lääkkeellä ei ole haitallista vaikutusta ajokykyyn eikä koneiden käyttökykyyn. Sitagliptiinin käytön yhteydessä on kuitenkin raportoitu heitehuimausta ja uneliaisuutta, jotka voivat vaikuttaa ajokykyyn tai koneiden käyttökykyyn.</p>
                        <p>Tämän lääkkeen käyttäminen yhdessä sulfonyyliureoiden tai insuliinin kanssa voi aiheuttaa hypoglykemiaa, joka voi vaikuttaa ajokykyyn ja koneiden käyttökykyyn tai työskentelyyn epävakaalla alustalla.</p>
                        <p>
                           <strong>Janumet sisältää natriumia</strong>
                           <br/>
Tämä lääkevalmiste sisältää alle 1 mmol natriumia (23 mg) per tabletti eli sen voidaan sanoa olevan ”natriumiton”.</p>
                     </div>
            </text>
          </section>
          <section>
            <title value="Miten valmistetta käytetään"/>
            <code>
              <coding>
                <system value="https://spor.ema.europa.eu/v1/lists/200000029659/terms/"/>
                <code value="200000029905"/>
              </coding>
            </code>
            <text>
              <status value="additional"/><div xmlns="http://www.w3.org/1999/xhtml">
                        <h2>Miten valmistetta käytetään</h2>
                        <p>Ota tätä lääkettä juuri siten kuin lääkäri on määrännyt. Tarkista ohjeet lääkäriltä tai apteekista, jos olet epävarma.</p>
                        <ul>
                           <li>Ota yksi tabletti:
	<ul>
                                 <li>kahdesti vuorokaudessa suun kautta</li>
                                 <li>aterioiden yhteydessä vatsan ärtymisen vaaran pienentämiseksi.</li>
                              </ul>
                           </li>
                           <li>Lääkäri voi joutua suurentamaan annostasi, jotta verensokerisi pysyy hallinnassa.</li>
                           <li>Jos munuaistoimintasi on heikentynyt, lääkäri saattaa määrätä sinulle pienemmän annoksen.</li>
                        </ul>
                        <p>Sinun tulee jatkaa lääkärin suosittelemaa ruokavaliota tämän lääkkeen käytön aikana ja huolehtia hiilihydraattien saannista tasaisesti pitkin päivää.</p>
                        <p>Yksinään käytettynä tämä lääke ei todennäköisesti aiheuta liiallista verensokerin laskua (hypoglykemiaa). Kun tätä lääkettä käytetään sulfonyyliurean tai insuliinin kanssa, voi alhaista verensokeria esiintyä, ja lääkäri voi pienentää sulfonyyliurea- tai insuliiniannostasi.</p>
                        <p>
                           <strong>Jos otat enemmän Janumet-valmistetta kuin sinun pitäisi</strong>
                           <br/>
Jos otat tätä lääkettä enemmän kuin sinulle on määrätty, ota heti yhteys lääkäriin. Mene sairaalaan, jos sinulla on maitohappoasidoosin oireita, esim. kylmyyden tunne tai epämukava olo, voimakas pahoinvointi tai oksentelu, vatsakipu, selittämätön painon lasku, lihaskouristukset tai nopea hengitys (ks. kohta ”Varoitukset ja varotoimet”).</p>
                        <p>
                           <strong>Jos unohdat ottaa Janumet-valmistetta</strong>
                           <br/>
Jos unohdat ottaa annoksen, ota se heti muistaessasi. Jos huomaat unohtaneesi ottaa annoksen vasta kun on aika ottaa seuraava annos, jätä unohtunut annos väliin ja palaa takaisin normaaliin aikatauluun. Älä ota kaksinkertaista annosta tätä lääkettä.</p>
                        <p>
                           <strong>Jos lopetat Janumet-valmisteen käytön</strong>
                           <br/>
Jatka tämän lääkkeen ottamista niin kauan kuin lääkäri on määrännyt, jotta verensokeriarvosi pysyvät hallinnassa. Älä lopeta tämän lääkkeen ottamista keskustelematta siitä ensin lääkärin kanssa. Jos lopetat Janumetin käytön, verensokerisi voi kohota uudestaan.</p>
                        <p>Jos sinulla on kysymyksiä tämän lääkkeen käytöstä, käänny lääkärin tai apteekkihenkilökunnan puoleen.</p>
                     </div>
            </text>
          </section>
          <section>
            <title value="Mahdolliset haittavaikutukset"/>
            <code>
              <coding>
                <system value="https://spor.ema.europa.eu/v1/lists/200000029659/terms/"/>
                <code value="200000029910"/>
              </coding>
            </code>
            <text>
              <status value="additional"/><div xmlns="http://www.w3.org/1999/xhtml">
                        <h2>Mahdolliset haittavaikutukset</h2>
                        <p>Kuten kaikki lääkkeet, tämäkin lääke voi aiheuttaa haittavaikutuksia. Kaikki eivät kuitenkaan niitä saa.</p>
                        <p>LOPETA Janumetin käyttö ja ota heti yhteys lääkäriin, jos havaitset jonkin seuraavista vakavista haittavaikutuksista:</p>
                        <ul>
                           <li>voimakas ja jatkuva vatsakipu (mahan alueella), joka saattaa ulottua selkään ja johon voi liittyä pahoinvointia ja oksentelua, koska nämä voivat olla haimatulehduksen (pankreatiitin) oireita.</li>
                        </ul>
                        <p>Janumet voi aiheuttaa hyvin harvinaisen (enintään 1 käyttäjällä 10 000:sta esiintyvän) mutta hyvin vakavan haittavaikutuksen, maitohappoasidoosin (ks. kohta ”Varoitukset ja varotoimet”). Jos sinulle käy näin, <strong>lopeta Janumet-lääkkeen käyttö ja ota heti yhteys lääkäriin tai lähimpään sairaalaan</strong>, sillä maitohappoasidoosi voi johtaa koomaan.</p>
                        <p>Jos saat vakavan allergisen reaktion (esiintymistiheys on tuntematon), johon voi kuulua ihottuma, nokkosihottuma, ihorakkuloita/ihon kuoriutumista sekä kasvojen, huulten, kielen ja nielun turvotus, jotka voivat aiheuttaa hengitys- tai nielemisvaikeuksia, lopeta tämän lääkkeen käyttö ja ota heti yhteys lääkäriin. Lääkäri voi määrätä sinulle lääkkeen allergisen reaktion hoitoon sekä vaihtoehtoisen diabeteslääkkeen.</p>
                        <p>Joillakin metformiinia käyttävillä potilailla on esiintynyt seuraavia haittavaikutuksia, kun he ovat aloittaneet sitagliptiinihoidon:<br/>
Yleinen (enintään yhdellä potilaalla 10:stä): alhainen verensokeri, pahoinvointi, ilmavaivat, oksentelu<br/>
Melko harvinainen (enintään yhdellä potilaalla 100:sta): vatsakipu, ripuli, ummetus, uneliaisuus</p>
                        <p>Joillakin potilailla on esiintynyt ripulia, pahoinvointia, ilmavaivoja, ummetusta, vatsakipua tai oksentelua, kun he ovat aloittaneet sitagliptiinin käytön yhdessä metformiinin kanssa (esiintymistiheys on yleinen).</p>
                        <p>Joillakin potilailla on esiintynyt seuraavia haittavaikutuksia, kun tätä lääkettä on käytetty yhdessä sulfonyyliurean, esim. glimepiridin, kanssa:<br/>
Hyvin yleinen (yli yhdellä potilaalla 10:stä): alhainen verensokeri<br/>
Yleinen: ummetus</p>
                        <p>Joillakin potilailla on esiintynyt seuraavia haittavaikutuksia, kun tätä lääkettä on käytetty yhdessä pioglitatsonin kanssa:<br/>
Yleinen: käsien tai jalkojen turvotus</p>
                        <p>Joillakin potilailla on esiintynyt seuraavia haittavaikutuksia, kun tätä lääkettä on käytetty yhdessä insuliinin kanssa:<br/>
Hyvin yleinen: alhainen verensokeri<br/>
Melko harvinainen: suun kuivuminen, päänsärky</p>
                        <p>Joillakin potilailla on esiintynyt seuraavia haittavaikutuksia pelkästään sitagliptiinia (toinen Janumetin lääkeaineista) käytettäessä kliinisissä tutkimuksissa tai Janumetin tai sitagliptiinin markkinoille tulemisen jälkeen, kun Janumetia tai sitagliptiinia on käytetty yksin tai yhdessä muiden diabeteslääkkeiden kanssa:<br/>
Yleinen: alhainen verensokeri, päänsärky, ylähengitystieinfektio, tukkoinen tai vuotava nenä ja kurkkukipu, nivelrikko, käsivarsien ja säärten kipu<br/>
Melko harvinainen: heitehuimaus, ummetus, kutina<br/>
Harvinainen: verihiutaleiden vähentynyt määrä<br/>
Esiintymistiheys tuntematon: munuaisongelmat, jotka joissain tapauksissa vaativat keinomunuaishoitoa, oksentelu, nivelsärky, lihassärky, selkäsärky, interstitiaalinen keuhkosairaus, rakkulainen pemfigoidi (eräänlainen rakkulamuodostuma iholla)<br/>
                           <br/>
Joillakin potilailla on esiintynyt seuraavia haittavaikutuksia, kun he ovat käyttäneet pelkästään metformiinia:<br/>
Hyvin yleinen: pahoinvointi, oksentelu, ripuli, vatsakipu ja ruokahaluttomuus. Nämä oireet voivat ilmaantua, kun aloitat metformiinihoidon ja häviävät tavallisesti.<br/>
Yleinen: metallin maku suussa, pienentynyt tai pieni B<sub>12</sub>-vitamiinin pitoisuus veressä (oireena voi olla voimakas väsymys [uupumus], kielen aristus ja punoitus [kielitulehdus], pistelytuntemus [parestesia] tai ihon kalpeus tai keltaisuus). Lääkäri saattaa teettää kokeita oireiden syyn selvittämiseksi, koska jotkin näistä oireista voivat johtua myös diabeteksesta tai muista terveysongelmista.<br/>
Hyvin harvinainen: hepatiitti (maksasairaus), nokkosihottuma, ihon punoitus (ihottuma) tai kutina.</p>
                        <p>
                           <strong>Haittavaikutuksista ilmoittaminen</strong>
                           <br/>
Jos havaitset haittavaikutuksia, kerro niistä lääkärille, apteekkihenkilökunnalle tai sairaanhoitajalle. Tämä koskee myös sellaisia mahdollisia haittavaikutuksia, joita ei ole mainittu tässä pakkausselosteessa. Voit ilmoittaa haittavaikutuksista myös suoraan (ks. yhteystiedot alla). Ilmoittamalla haittavaikutuksista voit auttaa saamaan enemmän tietoa tämän lääkevalmisteen turvallisuudesta.</p>
                        <p>www-sivusto: www.fimea.fi<br/>
Lääkealan turvallisuus- ja kehittämiskeskus Fimea<br/>
Lääkkeiden haittavaikutusrekisteri<br/>
PL 55<br/>
00034 FIMEA</p>
                     </div>
            </text>
          </section>
          <section>
            <title value="Valmisteen säilyttäminen"/>
            <code>
              <coding>
                <system value="https://spor.ema.europa.eu/v1/lists/200000029659/terms/"/>
                <code value="200000029913"/>
              </coding>
            </code>
            <text>
              <status value="additional"/><div xmlns="http://www.w3.org/1999/xhtml">
                        <h2>Valmisteen säilyttäminen</h2>
                        <p>Ei lasten ulottuville eikä näkyville.</p>
                        <p>Älä käytä tätä lääkettä läpipainopakkauksessa ja ulkopakkauksessa mainitun viimeisen käyttöpäivämäärän (Käyt. viim. tai EXP) jälkeen. Viimeinen käyttöpäivämäärä tarkoittaa kuukauden viimeistä päivää.</p>
                        <p>Säilytä alle 25 °C.</p>
                        <p>Lääkkeitä ei pidä heittää viemäriin eikä hävittää talousjätteiden mukana. Kysy käyttämättömien lääkkeiden hävittämisestä apteekista. Näin menetellen suojelet luontoa.</p>
                     </div>
            </text>
          </section>
          <section>
            <title value="Pakkauksen sisältö ja muuta tietoa"/>
            <code>
              <coding>
                <system value="https://spor.ema.europa.eu/v1/lists/200000029659/terms/"/>
                <code value="200000029914"/>
              </coding>
            </code>
            <text>
              <status value="additional"/><div xmlns="http://www.w3.org/1999/xhtml">
                        <h2>Pakkauksen sisältö ja muuta tietoa</h2>
                        <p>
                           <strong>Mitä Janumet</strong>
                           <strong>sisältää</strong>
                        </p>
                        <ul>
                           <li>Vaikuttavat aineet ovat sitagliptiini ja metformiini.
	<ul>
                                 <li>Yksi Janumet 50 mg/850 mg kalvopäällysteinen tabletti (tabletti) sisältää sitagliptiinifosfaattimonohydraattia määrän, joka vastaa 50 mg sitagliptiinia, sekä 850 mg metformiinihydrokloridia.</li>
                                 <li>Yksi Janumet 50 mg/1000 mg kalvopäällysteinen tabletti (tabletti) sisältää sitagliptiinifosfaattimonohydraattia määrän, joka vastaa 50 mg sitagliptiinia, sekä 1000 mg metformiinihydrokloridia.</li>
                              </ul>
                           </li>
                           <li>Muut aineet ovat:
	<ul>
                                 <li>Tabletin ydin: mikrokiteinen selluloosa (E460), povidoni K 29/32 (E1201), natriumlauryylisulfaatti ja natriumstearyylifumaraatti.</li>
                                 <li>Kalvopäällyste: poly(vinyylialkoholi), makrogoli 3350, talkki (E553b), titaanidioksidi (E171), punainen rautaoksidi (E172) ja musta rautaoksidi (E172).</li>
                              </ul>
                           </li>
                        </ul>
                        <p>
                           <strong>Lääkevalmisteen kuvaus ja pakkauskoot</strong>
                        </p>
                        <ul>
                           <li>Janumet 50 mg/850 mg kalvopäällysteinen tabletti on kapselinmuotoinen, vaaleanpunainen kalvopäällysteinen tabletti, jossa on toisella puolella merkintä &quot;515&quot;.</li>
                           <li>Janumet 50 mg/1000 mg kalvopäällysteinen tabletti on kapselinmuotoinen, punainen kalvopäällysteinen tabletti, jossa on toisella puolella merkintä &quot;577&quot;.</li>
                        </ul>
                        <p>Läpinäkymätön läpipainopakkaus (PVC/PE/PVDC ja alumiini). Pakkaukset, joissa on 14, 28, 56, 60, 112, 168, 180 tai 196 kalvopäällysteistä tablettia. Kerrannaispakkaukset, jotka sisältävät 196 (2 pakkausta, joissa on 98) tai 168 (2 pakkausta, joissa on 84) kalvopäällysteistä tablettia. Pakkaus, jossa on 50 x 1 kalvopäällysteistä tablettia perforoidussa, yksittäispakatussa läpipainopakkauksessa.</p>
                        <p>Kaikkia pakkauskokoja ei välttämättä ole myynnissä.</p>
                        <p>
                           <strong>Myyntiluvan haltija ja valmistaja</strong>
                           <br/>
Merck Sharp &amp; Dohme B.V.<br/>
Waarderweg 39<br/>
2031 BN Haarlem<br/>
Alankomaat</p>
                        <p>Lisätietoja tästä lääkevalmisteesta antaa myyntiluvan haltijan paikallinen edustaja:</p>
                        <p>
                           <strong>Suomi/Finland</strong>
                           <br/>
MSD Finland Oy<br/>
Puh/Tel: +358 (0)9 804 650<br/>
info@msd.fi</p>
                        <p>
                           <strong>Tämä pakkausseloste on tarkistettu viimeksi 08.2023.</strong>
                        </p>
                        <p>Lisätietoa tästä lääkevalmisteesta on saatavilla Euroopan lääkeviraston verkkosivulla <a href="http://www.ema.europa.eu.">http://www.ema.europa.eu</a>
                        </p>
                     </div>
            </text>
            <section>
              <title value="Tekstin muuttamispäivämäärä"/>
              <code>
                <coding>
                  <system value="https://spor.ema.europa.eu/v1/lists/200000029659/terms/"/>
                  <code value="200000029919"/>
                </coding>
              </code>
              <text>
                <status value="additional"/><div xmlns="http://www.w3.org/1999/xhtml">
                           <h2>Tekstin muuttamispäivämäärä</h2>01.08.2023</div>
              </text>
            </section>
          </section>
        </section>
      </Composition>
    </resource>
  </entry>
  <entry>
    <fullUrl value="https://gravitatehealth.eu/fhir/nordic-epi/MedicinalProductDefinition/Diabetes-MPD-52"/>
    <resource>
      <MedicinalProductDefinition>
        <id value="Diabetes-MPD-52"/>
        <meta>
          <profile value="http://hl7.org/fhir/uv/emedicinal-product-info/StructureDefinition/MedicinalProductDefinition-uv-epi"/>
          <profile value="https://gravitatehealth.eu/fhir/nordic-epi-ig/StructureDefinition/Nordic-ePI-MedicinalProductDefinition"/>
        </meta>
        <text>
          <status value="generated"/><div xmlns="http://www.w3.org/1999/xhtml"><a name="MedicinalProductDefinition_Diabetes-MPD-52"> </a><p><b>Generated Narrative: MedicinalProductDefinition</b><a name="Diabetes-MPD-52"> </a><a name="hcDiabetes-MPD-52"> </a></p><div style="display: inline-block; background-color: #d9e0e7; padding: 6px; margin: 4px; border: 1px solid #8da1b4; border-radius: 5px; line-height: 60%"><p style="margin-bottom: 0px">Resource MedicinalProductDefinition &quot;Diabetes-MPD-52&quot; </p><p style="margin-bottom: 0px">Profiles: <a href="https://build.fhir.org/ig/HL7/emedicinal-product-info//StructureDefinition-MedicinalProductDefinition-uv-epi.html">MedicinalProductDefinition (ePI)</a>, <code>https://gravitatehealth.eu/fhir/nordic-epi-ig/StructureDefinition/Nordic-ePI-MedicinalProductDefinition</code></p></div><p><b>identifier</b>: <code>http://legemiddelverket.no/FEST/LegemiddelMerkevareID</code>/ID_A9EEB7A8-CDC8-4B18-882E-7C6F3DA3C5D2</p><h3>Names</h3><table class="grid"><tr><td style="display: none">-</td><td><b>ProductName</b></td></tr><tr><td style="display: none">*</td><td>Janumet tab 50 mg/1000 mg</td></tr></table></div>
        </text>
        <identifier>
          <system value="http://legemiddelverket.no/FEST/LegemiddelMerkevareID"/>
          <value value="ID_A9EEB7A8-CDC8-4B18-882E-7C6F3DA3C5D2"/>
        </identifier>
        <name>
          <productName value="Janumet tab 50 mg/1000 mg"/>
        </name>
      </MedicinalProductDefinition>
    </resource>
  </entry>
  <entry>
    <fullUrl value="https://gravitatehealth.eu/fhir/nordic-epi/PackagedProductDefinition/Diabetes-PPD-58"/>
    <resource>
      <PackagedProductDefinition>
        <id value="Diabetes-PPD-58"/>
        <meta>
          <profile value="http://hl7.org/fhir/uv/emedicinal-product-info/StructureDefinition/PackagedProductDefinition-uv-epi"/>
          <profile value="https://gravitatehealth.eu/fhir/nordic-epi-ig/StructureDefinition/Nordic-ePI-PackagedProductDefinition"/>
        </meta>
        <text>
          <status value="generated"/><div xmlns="http://www.w3.org/1999/xhtml"><a name="PackagedProductDefinition_Diabetes-PPD-58"> </a><p><b>Generated Narrative: PackagedProductDefinition</b><a name="Diabetes-PPD-58"> </a><a name="hcDiabetes-PPD-58"> </a></p><div style="display: inline-block; background-color: #d9e0e7; padding: 6px; margin: 4px; border: 1px solid #8da1b4; border-radius: 5px; line-height: 60%"><p style="margin-bottom: 0px">Resource PackagedProductDefinition &quot;Diabetes-PPD-58&quot; </p><p style="margin-bottom: 0px">Profiles: <a href="https://build.fhir.org/ig/HL7/emedicinal-product-info//StructureDefinition-PackagedProductDefinition-uv-epi.html">PackagedProductDefinition (ePI)</a>, <code>https://gravitatehealth.eu/fhir/nordic-epi-ig/StructureDefinition/Nordic-ePI-PackagedProductDefinition</code></p></div><p><b>identifier</b>: <code>http://legemiddelverket.no/FEST/LegemiddelPakningID</code>/ID_25C5B305-59F9-406B-85C3-563CC18EA51B, <code>https://farmalogg.no/varenummer</code>/143631, <code>https://pharmaca.fi/vnr</code>/143631</p><p><b>name</b>: Janumet tab 50 mg/1000 mg</p><p><b>packageFor</b>: <a href="#MedicinalProductDefinition_Diabetes-MPD-52">See above (MedicinalProductDefinition/Diabetes-MPD-52)</a></p></div>
        </text>
        <identifier>
          <system value="http://legemiddelverket.no/FEST/LegemiddelPakningID"/>
          <value value="ID_25C5B305-59F9-406B-85C3-563CC18EA51B"/>
        </identifier>
        <identifier>
          <system value="https://farmalogg.no/varenummer"/>
          <value value="143631"/>
        </identifier>
        <identifier>
          <system value="https://pharmaca.fi/vnr"/>
          <value value="143631"/>
        </identifier>
        <name value="Janumet tab 50 mg/1000 mg"/>
        <packageFor>
          <reference value="MedicinalProductDefinition/Diabetes-MPD-52"/>
        </packageFor>
      </PackagedProductDefinition>
    </resource>
  </entry>
  <entry>
    <fullUrl value="https://gravitatehealth.eu/fhir/nordic-epi/PackagedProductDefinition/Diabetes-PPD-57"/>
    <resource>
      <PackagedProductDefinition>
        <id value="Diabetes-PPD-57"/>
        <meta>
          <profile value="http://hl7.org/fhir/uv/emedicinal-product-info/StructureDefinition/PackagedProductDefinition-uv-epi"/>
          <profile value="https://gravitatehealth.eu/fhir/nordic-epi-ig/StructureDefinition/Nordic-ePI-PackagedProductDefinition"/>
        </meta>
        <text>
          <status value="generated"/><div xmlns="http://www.w3.org/1999/xhtml"><a name="PackagedProductDefinition_Diabetes-PPD-57"> </a><p><b>Generated Narrative: PackagedProductDefinition</b><a name="Diabetes-PPD-57"> </a><a name="hcDiabetes-PPD-57"> </a></p><div style="display: inline-block; background-color: #d9e0e7; padding: 6px; margin: 4px; border: 1px solid #8da1b4; border-radius: 5px; line-height: 60%"><p style="margin-bottom: 0px">Resource PackagedProductDefinition &quot;Diabetes-PPD-57&quot; </p><p style="margin-bottom: 0px">Profiles: <a href="https://build.fhir.org/ig/HL7/emedicinal-product-info//StructureDefinition-PackagedProductDefinition-uv-epi.html">PackagedProductDefinition (ePI)</a>, <code>https://gravitatehealth.eu/fhir/nordic-epi-ig/StructureDefinition/Nordic-ePI-PackagedProductDefinition</code></p></div><p><b>identifier</b>: <code>http://legemiddelverket.no/FEST/LegemiddelPakningID</code>/ID_801A0D37-D877-4EA1-906C-7897A95A085B, <code>https://farmalogg.no/varenummer</code>/028121, <code>https://pharmaca.fi/vnr</code>/028121</p><p><b>name</b>: Janumet tab 50 mg/1000 mg</p><p><b>packageFor</b>: <a href="#MedicinalProductDefinition_Diabetes-MPD-52">See above (MedicinalProductDefinition/Diabetes-MPD-52)</a></p></div>
        </text>
        <identifier>
          <system value="http://legemiddelverket.no/FEST/LegemiddelPakningID"/>
          <value value="ID_801A0D37-D877-4EA1-906C-7897A95A085B"/>
        </identifier>
        <identifier>
          <system value="https://farmalogg.no/varenummer"/>
          <value value="028121"/>
        </identifier>
        <identifier>
          <system value="https://pharmaca.fi/vnr"/>
          <value value="028121"/>
        </identifier>
        <name value="Janumet tab 50 mg/1000 mg"/>
        <packageFor>
          <reference value="MedicinalProductDefinition/Diabetes-MPD-52"/>
        </packageFor>
      </PackagedProductDefinition>
    </resource>
  </entry>
  <entry>
    <fullUrl value="https://gravitatehealth.eu/fhir/nordic-epi/MedicinalProductDefinition/Diabetes-MPD-54"/>
    <resource>
      <MedicinalProductDefinition>
        <id value="Diabetes-MPD-54"/>
        <meta>
          <profile value="http://hl7.org/fhir/uv/emedicinal-product-info/StructureDefinition/MedicinalProductDefinition-uv-epi"/>
          <profile value="https://gravitatehealth.eu/fhir/nordic-epi-ig/StructureDefinition/Nordic-ePI-MedicinalProductDefinition"/>
        </meta>
        <text>
          <status value="generated"/><div xmlns="http://www.w3.org/1999/xhtml"><a name="MedicinalProductDefinition_Diabetes-MPD-54"> </a><p><b>Generated Narrative: MedicinalProductDefinition</b><a name="Diabetes-MPD-54"> </a><a name="hcDiabetes-MPD-54"> </a></p><div style="display: inline-block; background-color: #d9e0e7; padding: 6px; margin: 4px; border: 1px solid #8da1b4; border-radius: 5px; line-height: 60%"><p style="margin-bottom: 0px">Resource MedicinalProductDefinition &quot;Diabetes-MPD-54&quot; </p><p style="margin-bottom: 0px">Profiles: <a href="https://build.fhir.org/ig/HL7/emedicinal-product-info//StructureDefinition-MedicinalProductDefinition-uv-epi.html">MedicinalProductDefinition (ePI)</a>, <code>https://gravitatehealth.eu/fhir/nordic-epi-ig/StructureDefinition/Nordic-ePI-MedicinalProductDefinition</code></p></div><p><b>identifier</b>: <code>http://legemiddelverket.no/FEST/LegemiddelMerkevareID</code>/ID_7D98CA71-7904-4FBD-8098-AA51BC1415F0</p><h3>Names</h3><table class="grid"><tr><td style="display: none">-</td><td><b>ProductName</b></td></tr><tr><td style="display: none">*</td><td>Janumet tab 50 mg/850 mg</td></tr></table></div>
        </text>
        <identifier>
          <system value="http://legemiddelverket.no/FEST/LegemiddelMerkevareID"/>
          <value value="ID_7D98CA71-7904-4FBD-8098-AA51BC1415F0"/>
        </identifier>
        <name>
          <productName value="Janumet tab 50 mg/850 mg"/>
        </name>
      </MedicinalProductDefinition>
    </resource>
  </entry>
  <entry>
    <fullUrl value="https://gravitatehealth.eu/fhir/nordic-epi/PackagedProductDefinition/Diabetes-PPD-60"/>
    <resource>
      <PackagedProductDefinition>
        <id value="Diabetes-PPD-60"/>
        <meta>
          <profile value="http://hl7.org/fhir/uv/emedicinal-product-info/StructureDefinition/PackagedProductDefinition-uv-epi"/>
          <profile value="https://gravitatehealth.eu/fhir/nordic-epi-ig/StructureDefinition/Nordic-ePI-PackagedProductDefinition"/>
        </meta>
        <text>
          <status value="generated"/><div xmlns="http://www.w3.org/1999/xhtml"><a name="PackagedProductDefinition_Diabetes-PPD-60"> </a><p><b>Generated Narrative: PackagedProductDefinition</b><a name="Diabetes-PPD-60"> </a><a name="hcDiabetes-PPD-60"> </a></p><div style="display: inline-block; background-color: #d9e0e7; padding: 6px; margin: 4px; border: 1px solid #8da1b4; border-radius: 5px; line-height: 60%"><p style="margin-bottom: 0px">Resource PackagedProductDefinition &quot;Diabetes-PPD-60&quot; </p><p style="margin-bottom: 0px">Profiles: <a href="https://build.fhir.org/ig/HL7/emedicinal-product-info//StructureDefinition-PackagedProductDefinition-uv-epi.html">PackagedProductDefinition (ePI)</a>, <code>https://gravitatehealth.eu/fhir/nordic-epi-ig/StructureDefinition/Nordic-ePI-PackagedProductDefinition</code></p></div><p><b>identifier</b>: <code>http://legemiddelverket.no/FEST/LegemiddelPakningID</code>/ID_F8957B1E-A284-4B26-BE75-2CA5D4EE28E2, <code>https://farmalogg.no/varenummer</code>/028110, <code>https://pharmaca.fi/vnr</code>/028110</p><p><b>name</b>: Janumet tab 50 mg/850 mg</p><p><b>packageFor</b>: <a href="#MedicinalProductDefinition_Diabetes-MPD-54">See above (MedicinalProductDefinition/Diabetes-MPD-54)</a></p></div>
        </text>
        <identifier>
          <system value="http://legemiddelverket.no/FEST/LegemiddelPakningID"/>
          <value value="ID_F8957B1E-A284-4B26-BE75-2CA5D4EE28E2"/>
        </identifier>
        <identifier>
          <system value="https://farmalogg.no/varenummer"/>
          <value value="028110"/>
        </identifier>
        <identifier>
          <system value="https://pharmaca.fi/vnr"/>
          <value value="028110"/>
        </identifier>
        <name value="Janumet tab 50 mg/850 mg"/>
        <packageFor>
          <reference value="MedicinalProductDefinition/Diabetes-MPD-54"/>
        </packageFor>
      </PackagedProductDefinition>
    </resource>
  </entry>
  <entry>
    <fullUrl value="https://gravitatehealth.eu/fhir/nordic-epi/PackagedProductDefinition/Diabetes-PPD-61"/>
    <resource>
      <PackagedProductDefinition>
        <id value="Diabetes-PPD-61"/>
        <meta>
          <profile value="http://hl7.org/fhir/uv/emedicinal-product-info/StructureDefinition/PackagedProductDefinition-uv-epi"/>
          <profile value="https://gravitatehealth.eu/fhir/nordic-epi-ig/StructureDefinition/Nordic-ePI-PackagedProductDefinition"/>
        </meta>
        <text>
          <status value="generated"/><div xmlns="http://www.w3.org/1999/xhtml"><a name="PackagedProductDefinition_Diabetes-PPD-61"> </a><p><b>Generated Narrative: PackagedProductDefinition</b><a name="Diabetes-PPD-61"> </a><a name="hcDiabetes-PPD-61"> </a></p><div style="display: inline-block; background-color: #d9e0e7; padding: 6px; margin: 4px; border: 1px solid #8da1b4; border-radius: 5px; line-height: 60%"><p style="margin-bottom: 0px">Resource PackagedProductDefinition &quot;Diabetes-PPD-61&quot; </p><p style="margin-bottom: 0px">Profiles: <a href="https://build.fhir.org/ig/HL7/emedicinal-product-info//StructureDefinition-PackagedProductDefinition-uv-epi.html">PackagedProductDefinition (ePI)</a>, <code>https://gravitatehealth.eu/fhir/nordic-epi-ig/StructureDefinition/Nordic-ePI-PackagedProductDefinition</code></p></div><p><b>identifier</b>: <code>http://legemiddelverket.no/FEST/LegemiddelPakningID</code>/ID_9440FA36-1817-476A-8E5F-5645EDA9715A, <code>https://farmalogg.no/varenummer</code>/143609, <code>https://pharmaca.fi/vnr</code>/143609</p><p><b>name</b>: Janumet tab 50 mg/850 mg</p><p><b>packageFor</b>: <a href="#MedicinalProductDefinition_Diabetes-MPD-54">See above (MedicinalProductDefinition/Diabetes-MPD-54)</a></p></div>
        </text>
        <identifier>
          <system value="http://legemiddelverket.no/FEST/LegemiddelPakningID"/>
          <value value="ID_9440FA36-1817-476A-8E5F-5645EDA9715A"/>
        </identifier>
        <identifier>
          <system value="https://farmalogg.no/varenummer"/>
          <value value="143609"/>
        </identifier>
        <identifier>
          <system value="https://pharmaca.fi/vnr"/>
          <value value="143609"/>
        </identifier>
        <name value="Janumet tab 50 mg/850 mg"/>
        <packageFor>
          <reference value="MedicinalProductDefinition/Diabetes-MPD-54"/>
        </packageFor>
      </PackagedProductDefinition>
    </resource>
  </entry>
</Bundle>