<?xml version="1.0" encoding="UTF-8"?>

<Bundle xmlns="http://hl7.org/fhir">
  <id value="bundlepackageleaflet-en-b62cc095c7be2116a8a65157286376a3"/>
  <meta>
    <profile value="http://hl7.org/fhir/uv/emedicinal-product-info/StructureDefinition/Bundle-uv-epi"/>
  </meta>
  <language value="en"/>
  <identifier>
    <system value="https://www.gravitatehealth.eu/sid/doc"/>
    <value value="hack-1"/>
  </identifier>
  <type value="document"/>
  <timestamp value="2023-06-27T10:09:22Z"/>
  <entry>
    <fullUrl value="http://hl7.eu/fhir/ig/gravitate-health/Composition/composition-en-b62cc095c7be2116a8a65157286376a3"/>
    <resource>
      <Composition>
        <id value="composition-en-b62cc095c7be2116a8a65157286376a3"/>
        <meta>
          <profile value="http://hl7.org/fhir/uv/emedicinal-product-info/StructureDefinition/Composition-uv-epi"/>
        </meta>
        <language value="en"/>
        <text>
          <status value="generated"/><div xmlns="http://www.w3.org/1999/xhtml" xml:lang="en" lang="en"><p><b>Generated Narrative: Composition</b><a name="composition-en-b62cc095c7be2116a8a65157286376a3"> </a></p><div style="display: inline-block; background-color: #d9e0e7; padding: 6px; margin: 4px; border: 1px solid #8da1b4; border-radius: 5px; line-height: 60%"><p style="margin-bottom: 0px">Resource Composition &quot;composition-en-b62cc095c7be2116a8a65157286376a3&quot;  (Language &quot;en&quot;) </p><p style="margin-bottom: 0px">Profile: <a href="https://build.fhir.org/ig/HL7/emedicinal-product-info//StructureDefinition-Composition-uv-epi.html">Composition (ePI)</a></p></div><p><b>identifier</b>: <code>https://spor.ema.europa.eu/rmswi/</code>/5d7d1cdbe1ec9b69cea434ad9af39541</p><p><b>status</b>: final</p><p><b>type</b>: Package Leaflet <span style="background: LightGoldenRodYellow; margin: 4px; border: 1px solid khaki"> (#100000155538)</span></p><p><b>category</b>: Raw <span style="background: LightGoldenRodYellow; margin: 4px; border: 1px solid khaki"> (<a href="CodeSystem-epicategory-cs.html">Category of EPI</a>#R)</span></p><p><b>date</b>: 2022-02-16 13:28:17+0000</p><p><b>author</b>: <a href="#Organization_mah-0880223fada9f23e0f3760dee80fc7a3">See above (Organization/mah-0880223fada9f23e0f3760dee80fc7a3)</a></p><p><b>title</b>: TEST PURPOSES ONLY - amoxicillin 250 mg tablets</p><h3>Attesters</h3><table class="grid"><tr><td style="display: none">-</td><td><b>Mode</b></td><td><b>Time</b></td></tr><tr><td style="display: none">*</td><td>Official <span style="background: LightGoldenRodYellow; margin: 4px; border: 1px solid khaki"> (<a href="http://hl7.org/fhir/R5/codesystem-composition-attestation-mode.html">Composition Attestation Mode</a>#official)</span></td><td>2022-02-16 13:28:17+0000</td></tr></table></div>
        </text>
        <identifier>
          <system value="https://spor.ema.europa.eu/rmswi/"/>
          <value value="5d7d1cdbe1ec9b69cea434ad9af39541"/>
        </identifier>
        <status value="final"/>
        <type>
          <coding>
            <system value="https://spor.ema.europa.eu/rmswi/"/>
            <code value="100000155538"/>
          </coding>
          <text value="Package Leaflet"/>
        </type>
        <category>
          <coding>
            <system value="http://hl7.eu/fhir/ig/gravitate-health/CodeSystem/epicategory-cs"/>
            <code value="R"/>
            <display value="Raw"/>
          </coding>
        </category>
        <subject>
          <reference value="MedicinalProductDefinition/mpb62cc095c7be2116a8a65157286376a3"/>
        </subject>
        <date value="2022-02-16T13:28:17Z"/>
        <author>
          <reference value="Organization/mah-0880223fada9f23e0f3760dee80fc7a3"/>
        </author>
        <title value="TEST PURPOSES ONLY - amoxicillin 250 mg tablets"/>
        <attester>
          <mode>
            <coding>
              <system value="http://hl7.org/fhir/composition-attestation-mode"/>
              <code value="official"/>
            </coding>
          </mode>
          <time value="2022-02-16T13:28:17Z"/>
        </attester>
        <section>
          <title value="B. Package Leaflet"/>
          <code>
            <coding>
              <system value="https://spor.ema.europa.eu/rmswi/"/>
              <code value="100000155538"/>
            </coding>
            <text value="B. PACKAGE LEAFLET"/>
          </code>
          <text>
            <status value="additional"/><div xmlns="http://www.w3.org/1999/xhtml">unavailable</div>
          </text>
          <emptyReason>
            <coding>
              <system value="http://terminology.hl7.org/CodeSystem/list-empty-reason"/>
              <code value="unavailable"/>
            </coding>
          </emptyReason>
          <section>
            <title value="Package leaflet: Information for the user"/>
            <code>
              <coding>
                <system value="https://spor.ema.europa.eu/rmswi/"/>
                <code value="100000155538"/>
              </coding>
              <text value="Package leaflet: Information for the user"/>
            </code>
            <text>
              <status value="additional"/><div xmlns="http://www.w3.org/1999/xhtml"><p>Read all of this leaflet carefully before you start taking this medicine because it contains important information for you.</p><ul><li>Keep this leaflet. You may need to read it again.</li><li>If you have any further questions, ask your doctor or pharmacist.</li><li>This medicine has been prescribed for you only. Do not pass it on to others. It may harm them, even if their sign of illness are the same as yours.</li><li>If you get any side effects, talk to your doctor or pharmacist. This includes any possible side effects not listed in this leaflet. See section 4.</li></ul></div>
            </text>
          </section>
          <section>
            <title value="What is in this leaflet"/>
            <code>
              <coding>
                <system value="https://spor.ema.europa.eu/rmswi/"/>
                <code value="100000155538"/>
              </coding>
              <text value="What is in this leaflet"/>
            </code>
            <text>
              <status value="additional"/><div xmlns="http://www.w3.org/1999/xhtml"><p>What is in this leaflet</p><ol><li>What Amoxicillin capsules is and what it is used for</li><li>What you need to know before you take Amoxicillin capsules</li><li>How to take Amoxicillin capsules</li><li>Possible side effects</li><li>How to store Amoxicillin capsules</li><li>Contents of the pack and other information</li></ol></div>
            </text>
          </section>
          <section>
            <title value="1. What 0 is and what it is used for"/>
            <code>
              <coding>
                <system value="https://spor.ema.europa.eu/rmswi/"/>
                <code value="100000155538"/>
              </coding>
              <text value="1. What 0 is and what it is used for"/>
            </code>
            <text>
              <status value="additional"/><div xmlns="http://www.w3.org/1999/xhtml"><h1 id="what-amoxicillin-capsules-is-and-what-it-is-used-for">What Amoxicillin capsules is and what it is used for</h1><p>What Amoxicillin Capsule is Amoxicillin 250 mg and 500 mg Capsules is an antibiotic. The active ingredient is amoxicillin. This belongs to a group of medicines called ‘penicillins’.</p><p>What Amoxicillin Capsule is used for Amoxicillin Capsule is used to treat infections caused by bacteria in different parts of the body. Amoxicillin Capsule may also be used in combination with other medicines to treat stomach ulcers.</p></div>
            </text>
          </section>
          <section>
            <title value="2. What you need to know before you take 0"/>
            <code>
              <coding>
                <system value="https://spor.ema.europa.eu/rmswi/"/>
                <code value="100000155538"/>
              </coding>
              <text value="2. What you need to know before you take 0"/>
            </code>
            <text>
              <status value="additional"/><div xmlns="http://www.w3.org/1999/xhtml"><p><strong>Do not take Amoxicillin capsule:</strong></p><ul><li>if you are allergic to amoxicillin, penicillin or any of the other ingredients of this medicine (listed in section 6)</li><li>if you have ever had an allergic reaction to any antibiotic. This can include a skin rash or swelling of the face or throat. Do not take Amoxicillin Capsules if any of the above apply. If you are not sure, talk to your doctor or pharmacist before taking Amoxicillin Capsules.</li></ul><p><strong>Warnings and Precautions</strong></p><p>Talk to your doctor or pharmacist before taking Amoxicillin Capsule if you:</p><ul><li>have glandular fever (fever, sore throat, swollen glands and extreme tiredness)</li><li>have kidney problems</li><li>are not urinating regularly. If you are not sure if any of the above apply to you, talk to your doctor or pharmacist before taking Amoxicillin Capsules.</li></ul><p><strong>Blood and urine tests</strong></p><p>If you are having:</p><ul><li>Urine tests (glucose) or blood tests for liver function</li><li>Oestriol tests (used during pregnancy to check the baby is developing normally) Tell your doctor or pharmacist that you are taking Amoxicillin Capsule. This is because Amoxicillin Capsule can affect the results of these tests.</li></ul><p><strong>Other medicines and Amoxicillin Capsules</strong></p><p>Tell your doctor or pharmacist if you are taking, have recently taken or might take any other medicines.</p><ul><li>If you are taking allopurinol (used for gout) with Amoxicillin Capsules, it may be more likely that you will have an allergic skin reaction.</li><li>If you are taking probenecid, (used to treat gout), concomitant use of probenecid may reduce the excretion of amoxicillin and is not recommended. Your doctor may decide to adjust your dose of Amoxicillin Capsules.</li><li>If you are taking medicines to help stop blood clots (such as warfarin), you may need extra blood tests.</li><li>If you are taking other antibiotics (such as tetracycline) Amoxicillin Capsules may be less effective.</li><li>If you are taking methotrexate (used to treat cancer and severe psoriasis), penicillins may reduce the excretion of methotrexate causing a potential increase in side effects.</li></ul><p><strong>Pregnancy and breast-feeding</strong></p><p>If you are pregnant or breast-feeding, think you may be pregnant or are planning to have a baby, ask your doctor or pharmacist for advice before taking this medicine.</p><p><strong>Driving and using machines</strong></p><p>Amoxicillin Capsules can have side effects and the symptoms (such as allergic reactions, dizziness and convulsions) may make you unfit to drive. Do not drive or operate machinery unless you are feeling well.</p></div>
            </text>
          </section>
          <section>
            <title value="3. How to take 0"/>
            <code>
              <coding>
                <system value="https://spor.ema.europa.eu/rmswi/"/>
                <code value="100000155538"/>
              </coding>
              <text value="3. How to take 0"/>
            </code>
            <text>
              <status value="additional"/><div xmlns="http://www.w3.org/1999/xhtml"><p>Always take this medicine exactly as your doctor or pharmacist has told you. Check with your doctor or pharmacist if you are not sure.</p><ul><li>Swallow with water without opening capsule.</li><li>Space the doses evenly during the day, at least 4 hours apart.</li></ul><p>The recommended dose is:</p><p><strong>Children weighing less than 40 kg</strong></p><p>All doses are worked out depending on the child’s body weight in kilograms.</p><ul><li>Your doctor will advise you how much Amoxicillin Capsules you should give to your baby or child.</li><li>The usual dose is 40 mg to 90 mg for each kilogram of body weight a day, given in two or three divided doses.</li><li>The maximum recommended dose is 100 mg for each kilogram of body weight a day.</li></ul><p><strong>Adults, elderly patients and children weighing 40 kg or more</strong></p><p>The usual dose of Amoxicillin Capsules is 250 mg to 500 mg three times a day or 750 mg to 1 g every 12 hours, depending on the severity and type of infection.</p><ul><li>Severe infections: 750 mg to 1 g three times a day.</li><li>Urinary tract infection: 3 g twice daily for one day.</li><li>Lyme disease (an infection spread by parasites called ticks): Isolated erythema migrans (early stage – red or pink circular rash): 4 g a day, Systemic manifestations (late stage – for more serious symptoms or when the disease spreads around your body): up to 6 g a day.</li><li>Stomach ulcers: one 750 mg or one 1 g dose twice a day for 7 days with other antibiotics and medicines to treat stomach ulcers.</li><li>To prevent heart infection during surgery: the dose will vary according to the type of surgery. Other medicines may also be given at the same time. Your doctor, pharmacist or nurse can give you more details.</li><li>The maximum recommended dose is 6 g per day.</li></ul><p><strong>Kidney problems</strong></p><p>If you have kidney problems the dose might be lower than the usual dose.</p><p><strong>If you take more Amoxicillin Capsules than you should</strong></p><p>If you have taken too much Amoxicillin Capsules, signs might be an upset stomach (feeling sick, being sick or diarrhoea) or crystals in the urine, which may be seen as cloudy urine, or problems urinating. Talk to your doctor as soon as possible. Take the medicine to show the doctor.</p><p><strong>If you forget to take Amoxicillin Capsules</strong></p><ul><li>If you forget to take a dose, take it as soon as you remember.</li><li>Do not take the next dose too soon, wait about 4 hours before taking the next dose.</li><li>Do not take a double dose to make up for a forgotten dose. How long should you take Amoxicillin Capsules for?</li><li>Keep taking Amoxicillin Capsules for as long as your doctor has told you to, even if you feel better. You need every dose to help fight the infection. If some bacteria survive they can cause the infection to come back.</li><li>Once you finish treatment, if you still feel unwell you should go back to see the doctor. Thrush (a yeast infection of moist areas of the body which can cause soreness, itching and white discharge) may develop if Amoxicillin Capsules is used for a long time. If this occurs tell your doctor. If you take Amoxicillin Capsules for a long time, your doctor may perform additional tests to check your kidneys, liver and blood are working normally. If you have any further questions on the use of this medicine, ask your doctor or pharmacist.</li></ul></div>
            </text>
          </section>
          <section>
            <title value="4. Possible side effects"/>
            <code>
              <coding>
                <system value="https://spor.ema.europa.eu/rmswi/"/>
                <code value="100000155538"/>
              </coding>
              <text value="4. Possible side effects"/>
            </code>
            <text>
              <status value="additional"/><div xmlns="http://www.w3.org/1999/xhtml"><p>Like all medicines, this medicine can cause side effects, although not everybody gets them. Stop taking Amoxicillin Capsules and see a doctor straight away, if you notice any of the following serious side effects – you may need urgent medical treatment:</p><p>The following are very rare (may affect up to 1 in 10,000 people)</p><ul><li>allergic reactions, the signs may include: skin itching or rash, swelling of the face, lips, tongue, body or breathing difficulties. These can be serious and occasionally deaths have occurred</li><li>rash or pinpoint flat red round spots under the skin surface or bruising of the skin. This is due to inflammation of blood vessel walls due to an allergic reaction. It can be associated with joint pain (arthritis) and kidney problems</li><li>a delayed allergic reaction can occur usually 7 to 12 days after having Amoxicillin Capsules, some signs include: rashes, fever, joint pains and enlargement of the lymph nodes especially under the arms</li><li>a skin reaction known as ‘erythema multiforme’ where you may develop: itchy reddish purple patches on the skin especially on the palms of the hands or soles of the feet, ‘hive-like’raised swollen areas on the skin, tender areas on the surfaces of the mouth, eyes and genitals. You may have a fever and be very tired</li><li>other severe skin reactions can include: changes in skin colour, bumps under the skin, blistering, pustules, peeling, redness, pain, itching, scaling. These may be associated with fever, headaches and body aches</li><li>flu-like symptoms with a rash, fever, swollen glands, and abnormal blood test results (including increased white blood cells (eosinophilia) and liver enzymes) (Drug Reaction with Eosinophilia and Systemic Symptoms (DRESS)).</li><li>high temperature (fever), chills, a sore throat or other signs of an infection, or if you bruise easily. These may be signs of a problem with your blood cells</li><li>the Jarisch-Herxheimer reaction which occur during treatment with Amoxicillin Capsules for Lyme disease and causes fever, chills, headache, muscle pain and skin rash.</li><li>inflammation of the large bowel (colon) with diarrhoea (sometimes containing blood), pain and fever</li><li>serious liver side effects may occur. They are mainly associated with people having treatment over a long period, males and the elderly. You must tell doctor urgently if you get:<ul><li>severe diarrhoea with bleeding</li><li>blisters, redness or bruising of the skin</li><li>darker urine or paler stools</li><li>yellowing of the skin or the whites of the eyes (jaundice). See also anaemia below which might result in jaundice.</li></ul></li></ul><p><em>These can happen when having the medicines or for up to several weeks after.</em></p><p>If any of the above happens stop taking the medicine and see your doctor straight away. Sometimes you may get less severe skin reactions such as:</p><ul><li>a middle itchy rash (round, pink-red patches), ‘hive-like’ swollen areas on forearms, legs, palms, hands or feet. This is uncommon (may affect up to 1 in 100 people). If you have any of these talk to your doctor as Amoxicillin Capsules will need to be stopped. The other possible side effects are:</li></ul><p><em>Common (may affect up to 1 in 10 people)</em></p><ul><li>skin rash</li><li>feeling sick (nausea)</li><li>diarrhoea.</li></ul><p><em>Uncommon (may affect up to 1 in 100 people)</em></p><ul><li>being sick (vomiting).</li></ul><p><em>Very rare (may affect up to 1 in 10,000 people)</em></p><ul><li>thrush (a yeast infection of the vagina, mouth or skin folds), you can get treatment for thrush from your doctor or pharmacist</li><li>kidney problems</li><li>fits (convulsions), seen in patients on high doses or with kidney problems</li><li>dizziness</li><li>hyperactivity</li><li>crystals in urine, leading to acute renal injury which may be seen as cloudy urine, or difficulty or discomfort in passing urine. Make sure you drink plenty of fluids to reduce the chances of these symptoms</li><li>the tongue may change to yellow, brown or black and it may have a hairy appearance</li><li>an excessive breakdown of red blood cells causing a form of anaemia. Signs include: tiredness, headaches, shortness of breath, dizziness, looking pale and yellowing of the skin and the whites of the eyes</li><li>low number of white blood cells</li><li>low number of cells involved in blood clotting</li><li>the blood may take longer to clot than it normally would. You may notice this if you have a nosebleed or cut yourself.</li><li>Chest pain in the context of allergic reactions, which may be a symptom of allergy triggered cardiac infarction (Kounis syndrome)</li><li>Drug-induced enterocolitis syndrome (DIES): DIES has been reported mainly in children receiving amoxicillin. It is a certain kind of allergic reaction with the leading symptom of repetitive vomiting (1-4 hours after drug administration). Further symptoms could comprise abdominal pain, lethargy, diarrhoea, and low blood pressure.</li><li>Rash with blisters arranged in a circle with central crusting or like a string of pearls (linear IgA disease)</li><li>Inflammation of the membranes that surround the brain and spinal cord (aseptic meningitis) Reporting of side effects If you get any side effects, talk to your doctor or pharmacist. This includes any possible side effects not listed in this leaflet. You can also report side effects directly via Yellow Card Scheme, Website: www.mhra.gov.uk/yellowcard. By reporting side effects you can help provide more information on the safety of this medicine.</li></ul></div>
            </text>
          </section>
          <section>
            <title value="5. How to store 0"/>
            <code>
              <coding>
                <system value="https://spor.ema.europa.eu/rmswi/"/>
                <code value="100000155538"/>
              </coding>
              <text value="5. How to store 0"/>
            </code>
            <text>
              <status value="additional"/><div xmlns="http://www.w3.org/1999/xhtml"><p>Keep this medicine out of the sight and reach of children.</p><p>Do not use this medicine after the expiry date which is stated on the carton after EXP. The expiry date refers to the last day of that month.</p><p>Store in the original pack below 30°C.</p><p>Do not use this medicine if you notice visible signs of deterioration.</p><p>Do not throw away any medicines via waste water or household waste. Ask your pharmacist how to throw away medicines you no longer use. These measures will help protect the environment.</p></div>
            </text>
          </section>
          <section>
            <title value="6. Contents of the pack and other information"/>
            <code>
              <coding>
                <system value="https://spor.ema.europa.eu/rmswi/"/>
                <code value="100000155538"/>
              </coding>
              <text value="6. Contents of the pack and other information"/>
            </code>
            <text>
              <status value="additional"/><div xmlns="http://www.w3.org/1999/xhtml">unavailable</div>
            </text>
            <emptyReason>
              <coding>
                <system value="http://terminology.hl7.org/CodeSystem/list-empty-reason"/>
                <code value="unavailable"/>
              </coding>
            </emptyReason>
          </section>
        </section>
      </Composition>
    </resource>
  </entry>
  <entry>
    <fullUrl value="http://hl7.eu/fhir/ig/gravitate-health/Ingredient/ingredient-for-amox-croscarmellosesodium"/>
    <resource>
      <Ingredient>
        <id value="ingredient-for-amox-croscarmellosesodium"/>
        <meta>
          <profile value="http://hl7.org/fhir/uv/emedicinal-product-info/StructureDefinition/Ingredient-uv-epi"/>
        </meta>
        <text>
          <status value="generated"/><div xmlns="http://www.w3.org/1999/xhtml"><p><b>Generated Narrative: Ingredient</b><a name="ingredient-for-amox-croscarmellosesodium"> </a></p><div style="display: inline-block; background-color: #d9e0e7; padding: 6px; margin: 4px; border: 1px solid #8da1b4; border-radius: 5px; line-height: 60%"><p style="margin-bottom: 0px">Resource Ingredient &quot;ingredient-for-amox-croscarmellosesodium&quot; </p><p style="margin-bottom: 0px">Profile: <a href="https://build.fhir.org/ig/HL7/emedicinal-product-info//StructureDefinition-Ingredient-uv-epi.html">Ingredient (ePI)</a></p></div><p><b>identifier</b>: <code>https://gsrs.ncats.nih.gov/ginas/app/beta</code>/M28OL1HH48 (use: OFFICIAL)</p><p><b>status</b>: active</p><p><b>for</b>: </p><ul><li><a href="#ManufacturedItemDefinition_mid-b62cc095c7be2116a8a65157286376a3">See above (ManufacturedItemDefinition/mid-b62cc095c7be2116a8a65157286376a3)</a></li><li><a href="#MedicinalProductDefinition_mpb62cc095c7be2116a8a65157286376a3">See above (MedicinalProductDefinition/mpb62cc095c7be2116a8a65157286376a3)</a></li><li><a href="#AdministrableProductDefinition_ap-b62cc095c7be2116a8a65157286376a3">See above (AdministrableProductDefinition/ap-b62cc095c7be2116a8a65157286376a3)</a></li></ul><p><b>role</b>: Excipient <span style="background: LightGoldenRodYellow; margin: 4px; border: 1px solid khaki"> (rmswi#100000072082)</span></p><blockquote><p><b>substance</b></p><h3>Codes</h3><table class="grid"><tr><td style="display: none">-</td><td><b>Concept</b></td></tr><tr><td style="display: none">*</td><td>Croscarmellose sodium <span style="background: LightGoldenRodYellow; margin: 4px; border: 1px solid khaki"> (beta#M28OL1HH48)</span></td></tr></table></blockquote></div>
        </text>
        <identifier>
          <use value="official"/>
          <system value="https://gsrs.ncats.nih.gov/ginas/app/beta"/>
          <value value="M28OL1HH48"/>
        </identifier>
        <status value="active"/>
        <for>
          <reference value="ManufacturedItemDefinition/mid-b62cc095c7be2116a8a65157286376a3"/>
        </for>
        <for>
          <reference value="MedicinalProductDefinition/mpb62cc095c7be2116a8a65157286376a3"/>
        </for>
        <for>
          <reference value="AdministrableProductDefinition/ap-b62cc095c7be2116a8a65157286376a3"/>
        </for>
        <role>
          <coding>
            <system value="https://spor.ema.europa.eu/rmswi"/>
            <code value="100000072082"/>
            <display value="Excipient"/>
          </coding>
        </role>
        <substance>
          <code>
            <concept>
              <coding>
                <system value="https://gsrs.ncats.nih.gov/ginas/app/beta"/>
                <code value="M28OL1HH48"/>
                <display value="Croscarmellose sodium"/>
              </coding>
            </concept>
          </code>
        </substance>
      </Ingredient>
    </resource>
  </entry>
  <entry>
    <fullUrl value="http://hl7.eu/fhir/ig/gravitate-health/Ingredient/ingredient-for-amox-microcrystallinecellulose"/>
    <resource>
      <Ingredient>
        <id value="ingredient-for-amox-microcrystallinecellulose"/>
        <meta>
          <profile value="http://hl7.org/fhir/uv/emedicinal-product-info/StructureDefinition/Ingredient-uv-epi"/>
        </meta>
        <text>
          <status value="generated"/><div xmlns="http://www.w3.org/1999/xhtml"><p><b>Generated Narrative: Ingredient</b><a name="ingredient-for-amox-microcrystallinecellulose"> </a></p><div style="display: inline-block; background-color: #d9e0e7; padding: 6px; margin: 4px; border: 1px solid #8da1b4; border-radius: 5px; line-height: 60%"><p style="margin-bottom: 0px">Resource Ingredient &quot;ingredient-for-amox-microcrystallinecellulose&quot; </p><p style="margin-bottom: 0px">Profile: <a href="https://build.fhir.org/ig/HL7/emedicinal-product-info//StructureDefinition-Ingredient-uv-epi.html">Ingredient (ePI)</a></p></div><p><b>identifier</b>: <code>https://gsrs.ncats.nih.gov/ginas/app/beta</code>/OP1R32D61U (use: OFFICIAL)</p><p><b>status</b>: active</p><p><b>for</b>: </p><ul><li><a href="#ManufacturedItemDefinition_mid-b62cc095c7be2116a8a65157286376a3">See above (ManufacturedItemDefinition/mid-b62cc095c7be2116a8a65157286376a3)</a></li><li><a href="#MedicinalProductDefinition_mpb62cc095c7be2116a8a65157286376a3">See above (MedicinalProductDefinition/mpb62cc095c7be2116a8a65157286376a3)</a></li><li><a href="#AdministrableProductDefinition_ap-b62cc095c7be2116a8a65157286376a3">See above (AdministrableProductDefinition/ap-b62cc095c7be2116a8a65157286376a3)</a></li></ul><p><b>role</b>: Excipient <span style="background: LightGoldenRodYellow; margin: 4px; border: 1px solid khaki"> (rmswi#100000072082)</span></p><blockquote><p><b>substance</b></p><h3>Codes</h3><table class="grid"><tr><td style="display: none">-</td><td><b>Concept</b></td></tr><tr><td style="display: none">*</td><td>Microcrystalline cellulose <span style="background: LightGoldenRodYellow; margin: 4px; border: 1px solid khaki"> (beta#OP1R32D61U)</span></td></tr></table></blockquote></div>
        </text>
        <identifier>
          <use value="official"/>
          <system value="https://gsrs.ncats.nih.gov/ginas/app/beta"/>
          <value value="OP1R32D61U"/>
        </identifier>
        <status value="active"/>
        <for>
          <reference value="ManufacturedItemDefinition/mid-b62cc095c7be2116a8a65157286376a3"/>
        </for>
        <for>
          <reference value="MedicinalProductDefinition/mpb62cc095c7be2116a8a65157286376a3"/>
        </for>
        <for>
          <reference value="AdministrableProductDefinition/ap-b62cc095c7be2116a8a65157286376a3"/>
        </for>
        <role>
          <coding>
            <system value="https://spor.ema.europa.eu/rmswi"/>
            <code value="100000072082"/>
            <display value="Excipient"/>
          </coding>
        </role>
        <substance>
          <code>
            <concept>
              <coding>
                <system value="https://gsrs.ncats.nih.gov/ginas/app/beta"/>
                <code value="OP1R32D61U"/>
                <display value="Microcrystalline cellulose"/>
              </coding>
            </concept>
          </code>
        </substance>
      </Ingredient>
    </resource>
  </entry>
  <entry>
    <fullUrl value="http://hl7.eu/fhir/ig/gravitate-health/Ingredient/ingredient-for-amox-amoxicillin"/>
    <resource>
      <Ingredient>
        <id value="ingredient-for-amox-amoxicillin"/>
        <meta>
          <profile value="http://hl7.org/fhir/uv/emedicinal-product-info/StructureDefinition/Ingredient-uv-epi"/>
        </meta>
        <text>
          <status value="generated"/><div xmlns="http://www.w3.org/1999/xhtml"><p><b>Generated Narrative: Ingredient</b><a name="ingredient-for-amox-amoxicillin"> </a></p><div style="display: inline-block; background-color: #d9e0e7; padding: 6px; margin: 4px; border: 1px solid #8da1b4; border-radius: 5px; line-height: 60%"><p style="margin-bottom: 0px">Resource Ingredient &quot;ingredient-for-amox-amoxicillin&quot; </p><p style="margin-bottom: 0px">Profile: <a href="https://build.fhir.org/ig/HL7/emedicinal-product-info//StructureDefinition-Ingredient-uv-epi.html">Ingredient (ePI)</a></p></div><p><b>identifier</b>: <code>https://gsrs.ncats.nih.gov/ginas/app/beta</code>/804826J2HU (use: OFFICIAL)</p><p><b>status</b>: active</p><p><b>for</b>: </p><ul><li><a href="#ManufacturedItemDefinition_mid-b62cc095c7be2116a8a65157286376a3">See above (ManufacturedItemDefinition/mid-b62cc095c7be2116a8a65157286376a3)</a></li><li><a href="#MedicinalProductDefinition_mpb62cc095c7be2116a8a65157286376a3">See above (MedicinalProductDefinition/mpb62cc095c7be2116a8a65157286376a3)</a></li><li><a href="#AdministrableProductDefinition_ap-b62cc095c7be2116a8a65157286376a3">See above (AdministrableProductDefinition/ap-b62cc095c7be2116a8a65157286376a3)</a></li></ul><p><b>role</b>: Active <span style="background: LightGoldenRodYellow; margin: 4px; border: 1px solid khaki"> (rmswi#100000072072)</span></p><blockquote><p><b>substance</b></p><h3>Codes</h3><table class="grid"><tr><td style="display: none">-</td><td><b>Concept</b></td></tr><tr><td style="display: none">*</td><td>AMOXICILLIN <span style="background: LightGoldenRodYellow; margin: 4px; border: 1px solid khaki"> (beta#804826J2HU)</span></td></tr></table><h3>Strengths</h3><table class="grid"><tr><td style="display: none">-</td><td><b>Presentation[x]</b></td><td><b>Basis</b></td></tr><tr><td style="display: none">*</td><td>250 mg<span style="background: LightGoldenRodYellow"> (Details: UCUM code mg = 'mg')</span></td><td>active ingredient - basis of strength <span style="background: LightGoldenRodYellow; margin: 4px; border: 1px solid khaki"> (<a href="http://terminology.hl7.org/5.3.0/CodeSystem-v3-RoleClass.html">RoleClass</a>#ACTIB)</span></td></tr></table></blockquote></div>
        </text>
        <identifier>
          <use value="official"/>
          <system value="https://gsrs.ncats.nih.gov/ginas/app/beta"/>
          <value value="804826J2HU"/>
        </identifier>
        <status value="active"/>
        <for>
          <reference value="ManufacturedItemDefinition/mid-b62cc095c7be2116a8a65157286376a3"/>
        </for>
        <for>
          <reference value="MedicinalProductDefinition/mpb62cc095c7be2116a8a65157286376a3"/>
        </for>
        <for>
          <reference value="AdministrableProductDefinition/ap-b62cc095c7be2116a8a65157286376a3"/>
        </for>
        <role>
          <coding>
            <system value="https://spor.ema.europa.eu/rmswi"/>
            <code value="100000072072"/>
            <display value="Active"/>
          </coding>
        </role>
        <substance>
          <code>
            <concept>
              <coding>
                <system value="https://gsrs.ncats.nih.gov/ginas/app/beta"/>
                <code value="804826J2HU"/>
                <display value="AMOXICILLIN"/>
              </coding>
            </concept>
          </code>
          <strength>
            <presentationQuantity>
              <value value="250"/>
              <system value="http://unitsofmeasure.org"/>
              <code value="mg"/>
            </presentationQuantity>
            <basis>
              <coding>
                <system value="http://terminology.hl7.org/CodeSystem/v3-RoleClass"/>
                <code value="ACTIB"/>
                <display value="active ingredient - basis of strength"/>
              </coding>
            </basis>
          </strength>
        </substance>
      </Ingredient>
    </resource>
  </entry>
  <entry>
    <fullUrl value="http://hl7.eu/fhir/ig/gravitate-health/Ingredient/ingredient-for-amox-hypromellose"/>
    <resource>
      <Ingredient>
        <id value="ingredient-for-amox-hypromellose"/>
        <meta>
          <profile value="http://hl7.org/fhir/uv/emedicinal-product-info/StructureDefinition/Ingredient-uv-epi"/>
        </meta>
        <text>
          <status value="generated"/><div xmlns="http://www.w3.org/1999/xhtml"><p><b>Generated Narrative: Ingredient</b><a name="ingredient-for-amox-hypromellose"> </a></p><div style="display: inline-block; background-color: #d9e0e7; padding: 6px; margin: 4px; border: 1px solid #8da1b4; border-radius: 5px; line-height: 60%"><p style="margin-bottom: 0px">Resource Ingredient &quot;ingredient-for-amox-hypromellose&quot; </p><p style="margin-bottom: 0px">Profile: <a href="https://build.fhir.org/ig/HL7/emedicinal-product-info//StructureDefinition-Ingredient-uv-epi.html">Ingredient (ePI)</a></p></div><p><b>identifier</b>: <code>https://gsrs.ncats.nih.gov/ginas/app/beta</code>/3NXW29V3WO (use: OFFICIAL)</p><p><b>status</b>: active</p><p><b>for</b>: </p><ul><li><a href="#ManufacturedItemDefinition_mid-b62cc095c7be2116a8a65157286376a3">See above (ManufacturedItemDefinition/mid-b62cc095c7be2116a8a65157286376a3)</a></li><li><a href="#MedicinalProductDefinition_mpb62cc095c7be2116a8a65157286376a3">See above (MedicinalProductDefinition/mpb62cc095c7be2116a8a65157286376a3)</a></li><li><a href="#AdministrableProductDefinition_ap-b62cc095c7be2116a8a65157286376a3">See above (AdministrableProductDefinition/ap-b62cc095c7be2116a8a65157286376a3)</a></li></ul><p><b>role</b>: Excipient <span style="background: LightGoldenRodYellow; margin: 4px; border: 1px solid khaki"> (rmswi#100000072082)</span></p><blockquote><p><b>substance</b></p><h3>Codes</h3><table class="grid"><tr><td style="display: none">-</td><td><b>Concept</b></td></tr><tr><td style="display: none">*</td><td>Hypromellose <span style="background: LightGoldenRodYellow; margin: 4px; border: 1px solid khaki"> (beta#3NXW29V3WO)</span></td></tr></table></blockquote></div>
        </text>
        <identifier>
          <use value="official"/>
          <system value="https://gsrs.ncats.nih.gov/ginas/app/beta"/>
          <value value="3NXW29V3WO"/>
        </identifier>
        <status value="active"/>
        <for>
          <reference value="ManufacturedItemDefinition/mid-b62cc095c7be2116a8a65157286376a3"/>
        </for>
        <for>
          <reference value="MedicinalProductDefinition/mpb62cc095c7be2116a8a65157286376a3"/>
        </for>
        <for>
          <reference value="AdministrableProductDefinition/ap-b62cc095c7be2116a8a65157286376a3"/>
        </for>
        <role>
          <coding>
            <system value="https://spor.ema.europa.eu/rmswi"/>
            <code value="100000072082"/>
            <display value="Excipient"/>
          </coding>
        </role>
        <substance>
          <code>
            <concept>
              <coding>
                <system value="https://gsrs.ncats.nih.gov/ginas/app/beta"/>
                <code value="3NXW29V3WO"/>
                <display value="Hypromellose"/>
              </coding>
            </concept>
          </code>
        </substance>
      </Ingredient>
    </resource>
  </entry>
  <entry>
    <fullUrl value="http://hl7.eu/fhir/ig/gravitate-health/Ingredient/ingredient-for-amox-macrogol3000"/>
    <resource>
      <Ingredient>
        <id value="ingredient-for-amox-macrogol3000"/>
        <meta>
          <profile value="http://hl7.org/fhir/uv/emedicinal-product-info/StructureDefinition/Ingredient-uv-epi"/>
        </meta>
        <text>
          <status value="generated"/><div xmlns="http://www.w3.org/1999/xhtml"><p><b>Generated Narrative: Ingredient</b><a name="ingredient-for-amox-macrogol3000"> </a></p><div style="display: inline-block; background-color: #d9e0e7; padding: 6px; margin: 4px; border: 1px solid #8da1b4; border-radius: 5px; line-height: 60%"><p style="margin-bottom: 0px">Resource Ingredient &quot;ingredient-for-amox-macrogol3000&quot; </p><p style="margin-bottom: 0px">Profile: <a href="https://build.fhir.org/ig/HL7/emedicinal-product-info//StructureDefinition-Ingredient-uv-epi.html">Ingredient (ePI)</a></p></div><p><b>identifier</b>: <code>https://gsrs.ncats.nih.gov/ginas/app/beta</code>/SA1B764746 (use: OFFICIAL)</p><p><b>status</b>: active</p><p><b>for</b>: </p><ul><li><a href="#ManufacturedItemDefinition_mid-b62cc095c7be2116a8a65157286376a3">See above (ManufacturedItemDefinition/mid-b62cc095c7be2116a8a65157286376a3)</a></li><li><a href="#MedicinalProductDefinition_mpb62cc095c7be2116a8a65157286376a3">See above (MedicinalProductDefinition/mpb62cc095c7be2116a8a65157286376a3)</a></li><li><a href="#AdministrableProductDefinition_ap-b62cc095c7be2116a8a65157286376a3">See above (AdministrableProductDefinition/ap-b62cc095c7be2116a8a65157286376a3)</a></li></ul><p><b>role</b>: Excipient <span style="background: LightGoldenRodYellow; margin: 4px; border: 1px solid khaki"> (rmswi#100000072082)</span></p><blockquote><p><b>substance</b></p><h3>Codes</h3><table class="grid"><tr><td style="display: none">-</td><td><b>Concept</b></td></tr><tr><td style="display: none">*</td><td>Macrogol 3000 <span style="background: LightGoldenRodYellow; margin: 4px; border: 1px solid khaki"> (beta#SA1B764746)</span></td></tr></table></blockquote></div>
        </text>
        <identifier>
          <use value="official"/>
          <system value="https://gsrs.ncats.nih.gov/ginas/app/beta"/>
          <value value="SA1B764746"/>
        </identifier>
        <status value="active"/>
        <for>
          <reference value="ManufacturedItemDefinition/mid-b62cc095c7be2116a8a65157286376a3"/>
        </for>
        <for>
          <reference value="MedicinalProductDefinition/mpb62cc095c7be2116a8a65157286376a3"/>
        </for>
        <for>
          <reference value="AdministrableProductDefinition/ap-b62cc095c7be2116a8a65157286376a3"/>
        </for>
        <role>
          <coding>
            <system value="https://spor.ema.europa.eu/rmswi"/>
            <code value="100000072082"/>
            <display value="Excipient"/>
          </coding>
        </role>
        <substance>
          <code>
            <concept>
              <coding>
                <system value="https://gsrs.ncats.nih.gov/ginas/app/beta"/>
                <code value="SA1B764746"/>
                <display value="Macrogol 3000"/>
              </coding>
            </concept>
          </code>
        </substance>
      </Ingredient>
    </resource>
  </entry>
  <entry>
    <fullUrl value="http://hl7.eu/fhir/ig/gravitate-health/Ingredient/ingredient-for-amox-lactosemonohydrate"/>
    <resource>
      <Ingredient>
        <id value="ingredient-for-amox-lactosemonohydrate"/>
        <meta>
          <profile value="http://hl7.org/fhir/uv/emedicinal-product-info/StructureDefinition/Ingredient-uv-epi"/>
        </meta>
        <text>
          <status value="generated"/><div xmlns="http://www.w3.org/1999/xhtml"><p><b>Generated Narrative: Ingredient</b><a name="ingredient-for-amox-lactosemonohydrate"> </a></p><div style="display: inline-block; background-color: #d9e0e7; padding: 6px; margin: 4px; border: 1px solid #8da1b4; border-radius: 5px; line-height: 60%"><p style="margin-bottom: 0px">Resource Ingredient &quot;ingredient-for-amox-lactosemonohydrate&quot; </p><p style="margin-bottom: 0px">Profile: <a href="https://build.fhir.org/ig/HL7/emedicinal-product-info//StructureDefinition-Ingredient-uv-epi.html">Ingredient (ePI)</a></p></div><p><b>identifier</b>: <code>https://gsrs.ncats.nih.gov/ginas/app/beta</code>/EWQ57Q8I5X (use: OFFICIAL)</p><p><b>status</b>: active</p><p><b>for</b>: </p><ul><li><a href="#ManufacturedItemDefinition_mid-b62cc095c7be2116a8a65157286376a3">See above (ManufacturedItemDefinition/mid-b62cc095c7be2116a8a65157286376a3)</a></li><li><a href="#MedicinalProductDefinition_mpb62cc095c7be2116a8a65157286376a3">See above (MedicinalProductDefinition/mpb62cc095c7be2116a8a65157286376a3)</a></li><li><a href="#AdministrableProductDefinition_ap-b62cc095c7be2116a8a65157286376a3">See above (AdministrableProductDefinition/ap-b62cc095c7be2116a8a65157286376a3)</a></li></ul><p><b>role</b>: Excipient <span style="background: LightGoldenRodYellow; margin: 4px; border: 1px solid khaki"> (rmswi#100000072082)</span></p><blockquote><p><b>substance</b></p><h3>Codes</h3><table class="grid"><tr><td style="display: none">-</td><td><b>Concept</b></td></tr><tr><td style="display: none">*</td><td>Lactose Monohydrate <span style="background: LightGoldenRodYellow; margin: 4px; border: 1px solid khaki"> (beta#EWQ57Q8I5X)</span></td></tr></table></blockquote></div>
        </text>
        <identifier>
          <use value="official"/>
          <system value="https://gsrs.ncats.nih.gov/ginas/app/beta"/>
          <value value="EWQ57Q8I5X"/>
        </identifier>
        <status value="active"/>
        <for>
          <reference value="ManufacturedItemDefinition/mid-b62cc095c7be2116a8a65157286376a3"/>
        </for>
        <for>
          <reference value="MedicinalProductDefinition/mpb62cc095c7be2116a8a65157286376a3"/>
        </for>
        <for>
          <reference value="AdministrableProductDefinition/ap-b62cc095c7be2116a8a65157286376a3"/>
        </for>
        <role>
          <coding>
            <system value="https://spor.ema.europa.eu/rmswi"/>
            <code value="100000072082"/>
            <display value="Excipient"/>
          </coding>
        </role>
        <substance>
          <code>
            <concept>
              <coding>
                <system value="https://gsrs.ncats.nih.gov/ginas/app/beta"/>
                <code value="EWQ57Q8I5X"/>
                <display value="Lactose Monohydrate"/>
              </coding>
            </concept>
          </code>
        </substance>
      </Ingredient>
    </resource>
  </entry>
  <entry>
    <fullUrl value="http://hl7.eu/fhir/ig/gravitate-health/Ingredient/ingredient-for-amox-silicondioxide"/>
    <resource>
      <Ingredient>
        <id value="ingredient-for-amox-silicondioxide"/>
        <meta>
          <profile value="http://hl7.org/fhir/uv/emedicinal-product-info/StructureDefinition/Ingredient-uv-epi"/>
        </meta>
        <text>
          <status value="generated"/><div xmlns="http://www.w3.org/1999/xhtml"><p><b>Generated Narrative: Ingredient</b><a name="ingredient-for-amox-silicondioxide"> </a></p><div style="display: inline-block; background-color: #d9e0e7; padding: 6px; margin: 4px; border: 1px solid #8da1b4; border-radius: 5px; line-height: 60%"><p style="margin-bottom: 0px">Resource Ingredient &quot;ingredient-for-amox-silicondioxide&quot; </p><p style="margin-bottom: 0px">Profile: <a href="https://build.fhir.org/ig/HL7/emedicinal-product-info//StructureDefinition-Ingredient-uv-epi.html">Ingredient (ePI)</a></p></div><p><b>identifier</b>: <code>https://gsrs.ncats.nih.gov/ginas/app/beta</code>/ETJ7Z6XBU4 (use: OFFICIAL)</p><p><b>status</b>: active</p><p><b>for</b>: </p><ul><li><a href="#ManufacturedItemDefinition_mid-b62cc095c7be2116a8a65157286376a3">See above (ManufacturedItemDefinition/mid-b62cc095c7be2116a8a65157286376a3)</a></li><li><a href="#MedicinalProductDefinition_mpb62cc095c7be2116a8a65157286376a3">See above (MedicinalProductDefinition/mpb62cc095c7be2116a8a65157286376a3)</a></li><li><a href="#AdministrableProductDefinition_ap-b62cc095c7be2116a8a65157286376a3">See above (AdministrableProductDefinition/ap-b62cc095c7be2116a8a65157286376a3)</a></li></ul><p><b>role</b>: Excipient <span style="background: LightGoldenRodYellow; margin: 4px; border: 1px solid khaki"> (rmswi#100000072082)</span></p><blockquote><p><b>substance</b></p><h3>Codes</h3><table class="grid"><tr><td style="display: none">-</td><td><b>Concept</b></td></tr><tr><td style="display: none">*</td><td>Silicon dioxide <span style="background: LightGoldenRodYellow; margin: 4px; border: 1px solid khaki"> (beta#ETJ7Z6XBU4)</span></td></tr></table></blockquote></div>
        </text>
        <identifier>
          <use value="official"/>
          <system value="https://gsrs.ncats.nih.gov/ginas/app/beta"/>
          <value value="ETJ7Z6XBU4"/>
        </identifier>
        <status value="active"/>
        <for>
          <reference value="ManufacturedItemDefinition/mid-b62cc095c7be2116a8a65157286376a3"/>
        </for>
        <for>
          <reference value="MedicinalProductDefinition/mpb62cc095c7be2116a8a65157286376a3"/>
        </for>
        <for>
          <reference value="AdministrableProductDefinition/ap-b62cc095c7be2116a8a65157286376a3"/>
        </for>
        <role>
          <coding>
            <system value="https://spor.ema.europa.eu/rmswi"/>
            <code value="100000072082"/>
            <display value="Excipient"/>
          </coding>
        </role>
        <substance>
          <code>
            <concept>
              <coding>
                <system value="https://gsrs.ncats.nih.gov/ginas/app/beta"/>
                <code value="ETJ7Z6XBU4"/>
                <display value="Silicon dioxide"/>
              </coding>
            </concept>
          </code>
        </substance>
      </Ingredient>
    </resource>
  </entry>
  <entry>
    <fullUrl value="http://hl7.eu/fhir/ig/gravitate-health/Ingredient/ingredient-for-amox-titaniumdioxide"/>
    <resource>
      <Ingredient>
        <id value="ingredient-for-amox-titaniumdioxide"/>
        <meta>
          <profile value="http://hl7.org/fhir/uv/emedicinal-product-info/StructureDefinition/Ingredient-uv-epi"/>
        </meta>
        <text>
          <status value="generated"/><div xmlns="http://www.w3.org/1999/xhtml"><p><b>Generated Narrative: Ingredient</b><a name="ingredient-for-amox-titaniumdioxide"> </a></p><div style="display: inline-block; background-color: #d9e0e7; padding: 6px; margin: 4px; border: 1px solid #8da1b4; border-radius: 5px; line-height: 60%"><p style="margin-bottom: 0px">Resource Ingredient &quot;ingredient-for-amox-titaniumdioxide&quot; </p><p style="margin-bottom: 0px">Profile: <a href="https://build.fhir.org/ig/HL7/emedicinal-product-info//StructureDefinition-Ingredient-uv-epi.html">Ingredient (ePI)</a></p></div><p><b>identifier</b>: <code>https://gsrs.ncats.nih.gov/ginas/app/beta</code>/15FIX9V2JP (use: OFFICIAL)</p><p><b>status</b>: active</p><p><b>for</b>: </p><ul><li><a href="#ManufacturedItemDefinition_mid-b62cc095c7be2116a8a65157286376a3">See above (ManufacturedItemDefinition/mid-b62cc095c7be2116a8a65157286376a3)</a></li><li><a href="#MedicinalProductDefinition_mpb62cc095c7be2116a8a65157286376a3">See above (MedicinalProductDefinition/mpb62cc095c7be2116a8a65157286376a3)</a></li><li><a href="#AdministrableProductDefinition_ap-b62cc095c7be2116a8a65157286376a3">See above (AdministrableProductDefinition/ap-b62cc095c7be2116a8a65157286376a3)</a></li></ul><p><b>role</b>: Excipient <span style="background: LightGoldenRodYellow; margin: 4px; border: 1px solid khaki"> (rmswi#100000072082)</span></p><blockquote><p><b>substance</b></p><h3>Codes</h3><table class="grid"><tr><td style="display: none">-</td><td><b>Concept</b></td></tr><tr><td style="display: none">*</td><td>Titanium Dioxide <span style="background: LightGoldenRodYellow; margin: 4px; border: 1px solid khaki"> (beta#15FIX9V2JP)</span></td></tr></table></blockquote></div>
        </text>
        <identifier>
          <use value="official"/>
          <system value="https://gsrs.ncats.nih.gov/ginas/app/beta"/>
          <value value="15FIX9V2JP"/>
        </identifier>
        <status value="active"/>
        <for>
          <reference value="ManufacturedItemDefinition/mid-b62cc095c7be2116a8a65157286376a3"/>
        </for>
        <for>
          <reference value="MedicinalProductDefinition/mpb62cc095c7be2116a8a65157286376a3"/>
        </for>
        <for>
          <reference value="AdministrableProductDefinition/ap-b62cc095c7be2116a8a65157286376a3"/>
        </for>
        <role>
          <coding>
            <system value="https://spor.ema.europa.eu/rmswi"/>
            <code value="100000072082"/>
            <display value="Excipient"/>
          </coding>
        </role>
        <substance>
          <code>
            <concept>
              <coding>
                <system value="https://gsrs.ncats.nih.gov/ginas/app/beta"/>
                <code value="15FIX9V2JP"/>
                <display value="Titanium Dioxide"/>
              </coding>
            </concept>
          </code>
        </substance>
      </Ingredient>
    </resource>
  </entry>
  <entry>
    <fullUrl value="http://hl7.eu/fhir/ig/gravitate-health/Ingredient/ingredient-for-amox-magnesiumstearate"/>
    <resource>
      <Ingredient>
        <id value="ingredient-for-amox-magnesiumstearate"/>
        <meta>
          <profile value="http://hl7.org/fhir/uv/emedicinal-product-info/StructureDefinition/Ingredient-uv-epi"/>
        </meta>
        <text>
          <status value="generated"/><div xmlns="http://www.w3.org/1999/xhtml"><p><b>Generated Narrative: Ingredient</b><a name="ingredient-for-amox-magnesiumstearate"> </a></p><div style="display: inline-block; background-color: #d9e0e7; padding: 6px; margin: 4px; border: 1px solid #8da1b4; border-radius: 5px; line-height: 60%"><p style="margin-bottom: 0px">Resource Ingredient &quot;ingredient-for-amox-magnesiumstearate&quot; </p><p style="margin-bottom: 0px">Profile: <a href="https://build.fhir.org/ig/HL7/emedicinal-product-info//StructureDefinition-Ingredient-uv-epi.html">Ingredient (ePI)</a></p></div><p><b>identifier</b>: <code>https://gsrs.ncats.nih.gov/ginas/app/beta</code>/70097M6I30 (use: OFFICIAL)</p><p><b>status</b>: active</p><p><b>for</b>: </p><ul><li><a href="#ManufacturedItemDefinition_mid-b62cc095c7be2116a8a65157286376a3">See above (ManufacturedItemDefinition/mid-b62cc095c7be2116a8a65157286376a3)</a></li><li><a href="#MedicinalProductDefinition_mpb62cc095c7be2116a8a65157286376a3">See above (MedicinalProductDefinition/mpb62cc095c7be2116a8a65157286376a3)</a></li><li><a href="#AdministrableProductDefinition_ap-b62cc095c7be2116a8a65157286376a3">See above (AdministrableProductDefinition/ap-b62cc095c7be2116a8a65157286376a3)</a></li></ul><p><b>role</b>: Excipient <span style="background: LightGoldenRodYellow; margin: 4px; border: 1px solid khaki"> (rmswi#100000072082)</span></p><blockquote><p><b>substance</b></p><h3>Codes</h3><table class="grid"><tr><td style="display: none">-</td><td><b>Concept</b></td></tr><tr><td style="display: none">*</td><td>Magnesium stearate <span style="background: LightGoldenRodYellow; margin: 4px; border: 1px solid khaki"> (beta#70097M6I30)</span></td></tr></table></blockquote></div>
        </text>
        <identifier>
          <use value="official"/>
          <system value="https://gsrs.ncats.nih.gov/ginas/app/beta"/>
          <value value="70097M6I30"/>
        </identifier>
        <status value="active"/>
        <for>
          <reference value="ManufacturedItemDefinition/mid-b62cc095c7be2116a8a65157286376a3"/>
        </for>
        <for>
          <reference value="MedicinalProductDefinition/mpb62cc095c7be2116a8a65157286376a3"/>
        </for>
        <for>
          <reference value="AdministrableProductDefinition/ap-b62cc095c7be2116a8a65157286376a3"/>
        </for>
        <role>
          <coding>
            <system value="https://spor.ema.europa.eu/rmswi"/>
            <code value="100000072082"/>
            <display value="Excipient"/>
          </coding>
        </role>
        <substance>
          <code>
            <concept>
              <coding>
                <system value="https://gsrs.ncats.nih.gov/ginas/app/beta"/>
                <code value="70097M6I30"/>
                <display value="Magnesium stearate"/>
              </coding>
            </concept>
          </code>
        </substance>
      </Ingredient>
    </resource>
  </entry>
  <entry>
    <fullUrl value="http://hl7.eu/fhir/ig/gravitate-health/Ingredient/ingredient-for-amox-carnaubawax"/>
    <resource>
      <Ingredient>
        <id value="ingredient-for-amox-carnaubawax"/>
        <meta>
          <profile value="http://hl7.org/fhir/uv/emedicinal-product-info/StructureDefinition/Ingredient-uv-epi"/>
        </meta>
        <text>
          <status value="generated"/><div xmlns="http://www.w3.org/1999/xhtml"><p><b>Generated Narrative: Ingredient</b><a name="ingredient-for-amox-carnaubawax"> </a></p><div style="display: inline-block; background-color: #d9e0e7; padding: 6px; margin: 4px; border: 1px solid #8da1b4; border-radius: 5px; line-height: 60%"><p style="margin-bottom: 0px">Resource Ingredient &quot;ingredient-for-amox-carnaubawax&quot; </p><p style="margin-bottom: 0px">Profile: <a href="https://build.fhir.org/ig/HL7/emedicinal-product-info//StructureDefinition-Ingredient-uv-epi.html">Ingredient (ePI)</a></p></div><p><b>identifier</b>: <code>https://gsrs.ncats.nih.gov/ginas/app/beta</code>/R12CBM0EIZ (use: OFFICIAL)</p><p><b>status</b>: active</p><p><b>for</b>: </p><ul><li><a href="#ManufacturedItemDefinition_mid-b62cc095c7be2116a8a65157286376a3">See above (ManufacturedItemDefinition/mid-b62cc095c7be2116a8a65157286376a3)</a></li><li><a href="#MedicinalProductDefinition_mpb62cc095c7be2116a8a65157286376a3">See above (MedicinalProductDefinition/mpb62cc095c7be2116a8a65157286376a3)</a></li><li><a href="#AdministrableProductDefinition_ap-b62cc095c7be2116a8a65157286376a3">See above (AdministrableProductDefinition/ap-b62cc095c7be2116a8a65157286376a3)</a></li></ul><p><b>role</b>: Excipient <span style="background: LightGoldenRodYellow; margin: 4px; border: 1px solid khaki"> (rmswi#100000072082)</span></p><blockquote><p><b>substance</b></p><h3>Codes</h3><table class="grid"><tr><td style="display: none">-</td><td><b>Concept</b></td></tr><tr><td style="display: none">*</td><td>Carnauba wax <span style="background: LightGoldenRodYellow; margin: 4px; border: 1px solid khaki"> (beta#R12CBM0EIZ)</span></td></tr></table></blockquote></div>
        </text>
        <identifier>
          <use value="official"/>
          <system value="https://gsrs.ncats.nih.gov/ginas/app/beta"/>
          <value value="R12CBM0EIZ"/>
        </identifier>
        <status value="active"/>
        <for>
          <reference value="ManufacturedItemDefinition/mid-b62cc095c7be2116a8a65157286376a3"/>
        </for>
        <for>
          <reference value="MedicinalProductDefinition/mpb62cc095c7be2116a8a65157286376a3"/>
        </for>
        <for>
          <reference value="AdministrableProductDefinition/ap-b62cc095c7be2116a8a65157286376a3"/>
        </for>
        <role>
          <coding>
            <system value="https://spor.ema.europa.eu/rmswi"/>
            <code value="100000072082"/>
            <display value="Excipient"/>
          </coding>
        </role>
        <substance>
          <code>
            <concept>
              <coding>
                <system value="https://gsrs.ncats.nih.gov/ginas/app/beta"/>
                <code value="R12CBM0EIZ"/>
                <display value="Carnauba wax"/>
              </coding>
            </concept>
          </code>
        </substance>
      </Ingredient>
    </resource>
  </entry>
  <entry>
    <fullUrl value="http://hl7.eu/fhir/ig/gravitate-health/SubstanceDefinition/substance-amoxicillin"/>
    <resource>
      <SubstanceDefinition>
        <id value="substance-amoxicillin"/>
        <meta>
          <profile value="http://hl7.org/fhir/uv/emedicinal-product-info/StructureDefinition/SubstanceDefinition-uv-epi"/>
        </meta>
        <text>
          <status value="generated"/><div xmlns="http://www.w3.org/1999/xhtml"><p><b>Generated Narrative: SubstanceDefinition</b><a name="substance-amoxicillin"> </a></p><div style="display: inline-block; background-color: #d9e0e7; padding: 6px; margin: 4px; border: 1px solid #8da1b4; border-radius: 5px; line-height: 60%"><p style="margin-bottom: 0px">Resource SubstanceDefinition &quot;substance-amoxicillin&quot; </p><p style="margin-bottom: 0px">Profile: <a href="https://build.fhir.org/ig/HL7/emedicinal-product-info//StructureDefinition-SubstanceDefinition-uv-epi.html">SubstanceDefinition (ePI)</a></p></div><p><b>identifier</b>: <code>https://gsrs.ncats.nih.gov/ginas/app/beta/</code>/804826J2HU (use: OFFICIAL)</p><p><b>status</b>: Active <span style="background: LightGoldenRodYellow; margin: 4px; border: 1px solid khaki"> (<a href="http://hl7.org/fhir/R5/codesystem-publication-status.html">PublicationStatus</a>#active)</span></p><p><b>manufacturer</b>: <a href="#Organization_mah-0880223fada9f23e0f3760dee80fc7a3">See above (Organization/mah-0880223fada9f23e0f3760dee80fc7a3)</a></p></div>
        </text>
        <identifier>
          <use value="official"/>
          <system value="https://gsrs.ncats.nih.gov/ginas/app/beta/"/>
          <value value="804826J2HU"/>
        </identifier>
        <status>
          <coding>
            <system value="http://hl7.org/fhir/publication-status"/>
            <code value="active"/>
          </coding>
        </status>
        <manufacturer>
          <reference value="Organization/mah-0880223fada9f23e0f3760dee80fc7a3"/>
        </manufacturer>
      </SubstanceDefinition>
    </resource>
  </entry>
  <entry>
    <fullUrl value="http://hl7.eu/fhir/ig/gravitate-health/AdministrableProductDefinition/ap-b62cc095c7be2116a8a65157286376a3"/>
    <resource>
      <AdministrableProductDefinition>
        <id value="ap-b62cc095c7be2116a8a65157286376a3"/>
        <meta>
          <profile value="http://hl7.org/fhir/uv/emedicinal-product-info/StructureDefinition/AdministrableProductDefinition-uv-epi"/>
        </meta>
        <text>
          <status value="generated"/><div xmlns="http://www.w3.org/1999/xhtml"><p><b>Generated Narrative: AdministrableProductDefinition</b><a name="ap-b62cc095c7be2116a8a65157286376a3"> </a></p><div style="display: inline-block; background-color: #d9e0e7; padding: 6px; margin: 4px; border: 1px solid #8da1b4; border-radius: 5px; line-height: 60%"><p style="margin-bottom: 0px">Resource AdministrableProductDefinition &quot;ap-b62cc095c7be2116a8a65157286376a3&quot; </p><p style="margin-bottom: 0px">Profile: <a href="https://build.fhir.org/ig/HL7/emedicinal-product-info//StructureDefinition-AdministrableProductDefinition-uv-epi.html">AdministrableProductDefinition (ePI)</a></p></div><p><b>identifier</b>: <code>https://spor.ema.europa.eu/pmswi</code>/10637</p><p><b>status</b>: active</p><p><b>formOf</b>: <a href="#MedicinalProductDefinition_mpb62cc095c7be2116a8a65157286376a3">See above (MedicinalProductDefinition/mpb62cc095c7be2116a8a65157286376a3)</a></p><p><b>administrableDoseForm</b>: Capsule <span style="background: LightGoldenRodYellow; margin: 4px; border: 1px solid khaki"> (rmswi#200000016452)</span></p><p><b>unitOfPresentation</b>: Capsule <span style="background: LightGoldenRodYellow; margin: 4px; border: 1px solid khaki"> (rmswi#200000002113)</span></p><p><b>producedFrom</b>: <a href="#ManufacturedItemDefinition_mid-b62cc095c7be2116a8a65157286376a3">See above (ManufacturedItemDefinition/mid-b62cc095c7be2116a8a65157286376a3)</a></p><blockquote><p><b>routeOfAdministration</b></p><p><b>code</b>: Oral use <span style="background: LightGoldenRodYellow; margin: 4px; border: 1px solid khaki"> (rmswi#100000073619)</span></p><h3>TargetSpecies</h3><table class="grid"><tr><td style="display: none">-</td><td><b>Code</b></td></tr><tr><td style="display: none">*</td><td>Human <span style="background: LightGoldenRodYellow; margin: 4px; border: 1px solid khaki"> (rmswi#100000109093)</span></td></tr></table></blockquote></div>
        </text>
        <identifier>
          <system value="https://spor.ema.europa.eu/pmswi"/>
          <value value="10637"/>
        </identifier>
        <status value="active"/>
        <formOf>
          <reference value="MedicinalProductDefinition/mpb62cc095c7be2116a8a65157286376a3"/>
        </formOf>
        <administrableDoseForm>
          <coding>
            <system value="https://spor.ema.europa.eu/rmswi"/>
            <code value="200000016452"/>
            <display value="Capsule"/>
          </coding>
        </administrableDoseForm>
        <unitOfPresentation>
          <coding>
            <system value="https://spor.ema.europa.eu/rmswi"/>
            <code value="200000002113"/>
            <display value="Capsule"/>
          </coding>
        </unitOfPresentation>
        <producedFrom>
          <reference value="ManufacturedItemDefinition/mid-b62cc095c7be2116a8a65157286376a3"/>
        </producedFrom>
        <routeOfAdministration>
          <code>
            <coding>
              <system value="https://spor.ema.europa.eu/rmswi"/>
              <code value="100000073619"/>
              <display value="Oral use"/>
            </coding>
          </code>
          <targetSpecies>
            <code>
              <coding>
                <system value="https://spor.ema.europa.eu/rmswi"/>
                <code value="100000109093"/>
                <display value="Human"/>
              </coding>
            </code>
          </targetSpecies>
        </routeOfAdministration>
      </AdministrableProductDefinition>
    </resource>
  </entry>
  <entry>
    <fullUrl value="http://hl7.eu/fhir/ig/gravitate-health/RegulatedAuthorization/authorizationb62cc095c7be2116a8a65157286376a30"/>
    <resource>
      <RegulatedAuthorization>
        <id value="authorizationb62cc095c7be2116a8a65157286376a30"/>
        <meta>
          <profile value="http://hl7.org/fhir/uv/emedicinal-product-info/StructureDefinition/RegulatedAuthorization-uv-epi"/>
        </meta>
        <text>
          <status value="generated"/><div xmlns="http://www.w3.org/1999/xhtml"><p><b>Generated Narrative: RegulatedAuthorization</b><a name="authorizationb62cc095c7be2116a8a65157286376a30"> </a></p><div style="display: inline-block; background-color: #d9e0e7; padding: 6px; margin: 4px; border: 1px solid #8da1b4; border-radius: 5px; line-height: 60%"><p style="margin-bottom: 0px">Resource RegulatedAuthorization &quot;authorizationb62cc095c7be2116a8a65157286376a30&quot; </p><p style="margin-bottom: 0px">Profile: <a href="https://build.fhir.org/ig/HL7/emedicinal-product-info//StructureDefinition-RegulatedAuthorization-uv-epi.html">RegulatedAuthorization (ePI)</a></p></div><p><b>identifier</b>: <code>https://spor.ema.europa.eu/pmswi</code>/hack-1 (use: OFFICIAL)</p><p><b>subject</b>: <a href="#MedicinalProductDefinition_mpb62cc095c7be2116a8a65157286376a3">See above (MedicinalProductDefinition/mpb62cc095c7be2116a8a65157286376a3)</a></p><p><b>type</b>: Marketing Authorisation <span style="background: LightGoldenRodYellow; margin: 4px; border: 1px solid khaki"> (rmswi#220000000061)</span></p><p><b>status</b>: Active <span style="background: LightGoldenRodYellow; margin: 4px; border: 1px solid khaki"> (<a href="http://hl7.org/fhir/R5/codesystem-publication-status.html">PublicationStatus</a>#active)</span></p><p><b>statusDate</b>: 2015-02-07 13:28:17+0000</p><p><b>holder</b>: <a href="#Organization_mah-0880223fada9f23e0f3760dee80fc7a3">See above (Organization/mah-0880223fada9f23e0f3760dee80fc7a3)</a></p></div>
        </text>
        <identifier>
          <use value="official"/>
          <system value="https://spor.ema.europa.eu/pmswi"/>
          <value value="hack-1"/>
        </identifier>
        <subject>
          <reference value="MedicinalProductDefinition/mpb62cc095c7be2116a8a65157286376a3"/>
        </subject>
        <type>
          <coding>
            <system value="https://spor.ema.europa.eu/rmswi"/>
            <code value="220000000061"/>
            <display value="Marketing Authorisation"/>
          </coding>
        </type>
        <status>
          <coding>
            <system value="http://hl7.org/fhir/publication-status"/>
            <code value="active"/>
            <display value="Active"/>
          </coding>
        </status>
        <statusDate value="2015-02-07T13:28:17Z"/>
        <holder>
          <reference value="Organization/mah-0880223fada9f23e0f3760dee80fc7a3"/>
        </holder>
      </RegulatedAuthorization>
    </resource>
  </entry>
  <entry>
    <fullUrl value="http://hl7.eu/fhir/ig/gravitate-health/Organization/mah-0880223fada9f23e0f3760dee80fc7a3"/>
    <resource>
      <Organization>
        <id value="mah-0880223fada9f23e0f3760dee80fc7a3"/>
        <meta>
          <profile value="http://hl7.org/fhir/uv/emedicinal-product-info/StructureDefinition/Organization-uv-epi"/>
        </meta>
        <text>
          <status value="generated"/><div xmlns="http://www.w3.org/1999/xhtml"><p><b>Generated Narrative: Organization</b><a name="mah-0880223fada9f23e0f3760dee80fc7a3"> </a></p><div style="display: inline-block; background-color: #d9e0e7; padding: 6px; margin: 4px; border: 1px solid #8da1b4; border-radius: 5px; line-height: 60%"><p style="margin-bottom: 0px">Resource Organization &quot;mah-0880223fada9f23e0f3760dee80fc7a3&quot; </p><p style="margin-bottom: 0px">Profile: <a href="https://build.fhir.org/ig/HL7/emedicinal-product-info//StructureDefinition-Organization-uv-epi.html">Organization (ePI)</a></p></div><p><b>identifier</b>: <code>https://spor.ema.europa.eu/omswi</code>/ORG-100000789 (use: OFFICIAL)</p><p><b>active</b>: true</p><p><b>type</b>: Marketing authorisation holder <span style="background: LightGoldenRodYellow; margin: 4px; border: 1px solid khaki"> (rmswi#220000000034)</span></p><p><b>name</b>: ACME industry</p><h3>Contacts</h3><table class="grid"><tr><td style="display: none">-</td><td><b>Address</b></td></tr><tr><td style="display: none">*</td><td>street x and y Paris FR(WORK)</td></tr></table></div>
        </text>
        <identifier>
          <use value="official"/>
          <system value="https://spor.ema.europa.eu/omswi"/>
          <value value="ORG-100000789"/>
        </identifier>
        <active value="true"/>
        <type>
          <coding>
            <system value="https://spor.ema.europa.eu/rmswi"/>
            <code value="220000000034"/>
            <display value="Marketing authorisation holder"/>
          </coding>
        </type>
        <name value="ACME industry"/>
        <contact>
          <address>
            <use value="work"/>
            <type value="physical"/>
            <text value="street x and y Paris FR"/>
            <line value="street x and y"/>
            <city value="Paris"/>
            <country value="FR"/>
          </address>
        </contact>
      </Organization>
    </resource>
  </entry>
  <entry>
    <fullUrl value="http://hl7.eu/fhir/ig/gravitate-health/PackagedProductDefinition/ppd-eac9778d48eb0b894852b7d0d82c3aa8"/>
    <resource>
      <PackagedProductDefinition>
        <id value="ppd-eac9778d48eb0b894852b7d0d82c3aa8"/>
        <meta>
          <profile value="http://hl7.org/fhir/uv/emedicinal-product-info/StructureDefinition/PackagedProductDefinition-uv-epi"/>
        </meta>
        <text>
          <status value="generated"/><div xmlns="http://www.w3.org/1999/xhtml"><p><b>Generated Narrative: PackagedProductDefinition</b><a name="ppd-eac9778d48eb0b894852b7d0d82c3aa8"> </a></p><div style="display: inline-block; background-color: #d9e0e7; padding: 6px; margin: 4px; border: 1px solid #8da1b4; border-radius: 5px; line-height: 60%"><p style="margin-bottom: 0px">Resource PackagedProductDefinition &quot;ppd-eac9778d48eb0b894852b7d0d82c3aa8&quot; </p><p style="margin-bottom: 0px">Profile: <a href="https://build.fhir.org/ig/HL7/emedicinal-product-info//StructureDefinition-PackagedProductDefinition-uv-epi.html">PackagedProductDefinition (ePI)</a></p></div><p><b>identifier</b>: <code>https://spor.ema.europa.eu/pmswi</code>/10637 (use: OFFICIAL)</p><p><b>name</b>: amoxicillin 250 mg tablets 15</p><p><b>type</b>: Chemical Medicinal Product <span style="background: LightGoldenRodYellow; margin: 4px; border: 1px solid khaki"> (rmswi#100000155527)</span></p><p><b>packageFor</b>: <a href="#MedicinalProductDefinition_mpb62cc095c7be2116a8a65157286376a3">See above (MedicinalProductDefinition/mpb62cc095c7be2116a8a65157286376a3)</a></p><p><b>status</b>: Active <span style="background: LightGoldenRodYellow; margin: 4px; border: 1px solid khaki"> (<a href="http://hl7.org/fhir/R5/codesystem-publication-status.html">PublicationStatus</a>#active)</span></p><p><b>statusDate</b>: 2015-02-07 13:28:17+0000</p><p><b>containedItemQuantity</b>: 250 mg<span style="background: LightGoldenRodYellow"> (Details: UCUM code mg = 'mg')</span></p><blockquote><p><b>packaging</b></p><p><b>type</b>: Box <span style="background: LightGoldenRodYellow; margin: 4px; border: 1px solid khaki"> (rmswi#100000073498)</span></p><p><b>quantity</b>: 1</p><p><b>material</b>: Cardboard <span style="background: LightGoldenRodYellow; margin: 4px; border: 1px solid khaki"> (rmswi#200000003529)</span></p><blockquote><p><b>packaging</b></p><p><b>identifier</b>: <code>https://spor.ema.europa.eu/pmswi</code>/123456</p><p><b>type</b>: Blister <span style="background: LightGoldenRodYellow; margin: 4px; border: 1px solid khaki"> (rmswi#100000073496)</span></p><p><b>quantity</b>: 15</p><p><b>material</b>: PolyVinyl Chloride <span style="background: LightGoldenRodYellow; margin: 4px; border: 1px solid khaki"> (rmswi#200000003222)</span></p><blockquote><p><b>containedItem</b></p></blockquote></blockquote></blockquote></div>
        </text>
        <identifier>
          <use value="official"/>
          <system value="https://spor.ema.europa.eu/pmswi"/>
          <value value="10637"/>
        </identifier>
        <name value="amoxicillin 250 mg tablets 15"/>
        <type>
          <coding>
            <system value="https://spor.ema.europa.eu/rmswi"/>
            <code value="100000155527"/>
            <display value="Chemical Medicinal Product"/>
          </coding>
        </type>
        <packageFor>
          <reference value="MedicinalProductDefinition/mpb62cc095c7be2116a8a65157286376a3"/>
        </packageFor>
        <status>
          <coding>
            <system value="http://hl7.org/fhir/publication-status"/>
            <code value="active"/>
            <display value="Active"/>
          </coding>
        </status>
        <statusDate value="2015-02-07T13:28:17Z"/>
        <containedItemQuantity>
          <value value="250"/>
          <system value="http://unitsofmeasure.org"/>
          <code value="mg"/>
        </containedItemQuantity>
        <packaging>
          <type>
            <coding>
              <system value="https://spor.ema.europa.eu/rmswi"/>
              <code value="100000073498"/>
              <display value="Box"/>
            </coding>
          </type>
          <quantity value="1"/>
          <material>
            <coding>
              <system value="https://spor.ema.europa.eu/rmswi"/>
              <code value="200000003529"/>
              <display value="Cardboard"/>
            </coding>
          </material>
          <packaging>
            <identifier>
              <system value="https://spor.ema.europa.eu/pmswi"/>
              <value value="123456"/>
            </identifier>
            <type>
              <coding>
                <system value="https://spor.ema.europa.eu/rmswi"/>
                <code value="100000073496"/>
                <display value="Blister"/>
              </coding>
            </type>
            <quantity value="15"/>
            <material>
              <coding>
                <system value="https://spor.ema.europa.eu/rmswi"/>
                <code value="200000003222"/>
                <display value="PolyVinyl Chloride"/>
              </coding>
            </material>
            <containedItem>
              <item>
                <reference>
                  <reference value="ManufacturedItemDefinition/mid-b62cc095c7be2116a8a65157286376a3"/>
                </reference>
              </item>
            </containedItem>
          </packaging>
        </packaging>
      </PackagedProductDefinition>
    </resource>
  </entry>
  <entry>
    <fullUrl value="http://hl7.eu/fhir/ig/gravitate-health/MedicinalProductDefinition/mpb62cc095c7be2116a8a65157286376a3"/>
    <resource>
      <MedicinalProductDefinition>
        <id value="mpb62cc095c7be2116a8a65157286376a3"/>
        <meta>
          <profile value="http://hl7.org/fhir/uv/emedicinal-product-info/StructureDefinition/MedicinalProductDefinition-uv-epi"/>
        </meta>
        <text>
          <status value="generated"/><div xmlns="http://www.w3.org/1999/xhtml"><p><b>Generated Narrative: MedicinalProductDefinition</b><a name="mpb62cc095c7be2116a8a65157286376a3"> </a></p><div style="display: inline-block; background-color: #d9e0e7; padding: 6px; margin: 4px; border: 1px solid #8da1b4; border-radius: 5px; line-height: 60%"><p style="margin-bottom: 0px">Resource MedicinalProductDefinition &quot;mpb62cc095c7be2116a8a65157286376a3&quot; </p><p style="margin-bottom: 0px">Profile: <a href="https://build.fhir.org/ig/HL7/emedicinal-product-info//StructureDefinition-MedicinalProductDefinition-uv-epi.html">MedicinalProductDefinition (ePI)</a></p></div><p><b>identifier</b>: <code>http://fakesys.com/ids</code>/hack-1</p><p><b>type</b>: Medicinal Product <span style="background: LightGoldenRodYellow; margin: 4px; border: 1px solid khaki"> (<a href="http://hl7.org/fhir/R5/codesystem-medicinal-product-type.html">Medicinal Product Type</a>#MedicinalProduct)</span></p><p><b>domain</b>: Human use <span style="background: LightGoldenRodYellow; margin: 4px; border: 1px solid khaki"> (<a href="http://hl7.org/fhir/R5/codesystem-medicinal-product-domain.html">Medicinal Product Domain</a>#Human)</span></p><p><b>status</b>: active <span style="background: LightGoldenRodYellow; margin: 4px; border: 1px solid khaki"> (<a href="http://hl7.org/fhir/R5/codesystem-publication-status.html">PublicationStatus</a>#active)</span></p><p><b>legalStatusOfSupply</b>: Medicinal product subject to medical prescription <span style="background: LightGoldenRodYellow; margin: 4px; border: 1px solid khaki"> (rmswi#100000072084)</span></p><blockquote><p><b>name</b></p><p><b>productName</b>: amoxicillin 250 mg tablets</p><p><b>type</b>: Full name <span style="background: LightGoldenRodYellow; margin: 4px; border: 1px solid khaki"> (220000000000#220000000001)</span></p><blockquote><p><b>part</b></p><p><b>part</b>: Amoxicillin</p><p><b>type</b>: Invented name part <span style="background: LightGoldenRodYellow; margin: 4px; border: 1px solid khaki"> (220000000000#220000000002)</span></p></blockquote><blockquote><p><b>part</b></p><p><b>part</b>: AMOXY</p><p><b>type</b>: Scientific name part <span style="background: LightGoldenRodYellow; margin: 4px; border: 1px solid khaki"> (220000000000#220000000003)</span></p></blockquote><blockquote><p><b>part</b></p><p><b>part</b>: 250 mg</p><p><b>type</b>: Strength part <span style="background: LightGoldenRodYellow; margin: 4px; border: 1px solid khaki"> (220000000000#220000000004)</span></p></blockquote><blockquote><p><b>part</b></p><p><b>part</b>: tablet</p><p><b>type</b>: Pharmaceutical dose form part <span style="background: LightGoldenRodYellow; margin: 4px; border: 1px solid khaki"> (220000000000#220000000005)</span></p></blockquote><h3>Usages</h3><table class="grid"><tr><td style="display: none">-</td><td><b>Country</b></td><td><b>Jurisdiction</b></td><td><b>Language</b></td></tr><tr><td style="display: none">*</td><td>United kingdom <span style="background: LightGoldenRodYellow; margin: 4px; border: 1px solid khaki"> (<a href="http://terminology.hl7.org/5.3.0/CodeSystem-ISO3166Part1.html">ISO 3166-1 Codes for the representation of names of countries and their subdivisions — Part 1: Country code</a>#UK)</span></td><td>United kingdom <span style="background: LightGoldenRodYellow; margin: 4px; border: 1px solid khaki"> (<a href="http://terminology.hl7.org/5.3.0/CodeSystem-ISO3166Part1.html">ISO 3166-1 Codes for the representation of names of countries and their subdivisions — Part 1: Country code</a>#UK)</span></td><td>English <span style="background: LightGoldenRodYellow; margin: 4px; border: 1px solid khaki"> (<a href="http://terminology.hl7.org/5.3.0/CodeSystem-v3-ietf3066.html">Tags for the Identification of Languages</a>#en)</span></td></tr></table></blockquote></div>
        </text>
        <identifier>
          <system value="http://fakesys.com/ids"/>
          <value value="hack-1"/>
        </identifier>
        <type>
          <coding>
            <system value="http://hl7.org/fhir/medicinal-product-type"/>
            <code value="MedicinalProduct"/>
            <display value="Medicinal Product"/>
          </coding>
        </type>
        <domain>
          <coding>
            <system value="http://hl7.org/fhir/medicinal-product-domain"/>
            <code value="Human"/>
            <display value="Human use"/>
          </coding>
        </domain>
        <status>
          <coding>
            <system value="http://hl7.org/fhir/publication-status"/>
            <code value="active"/>
            <display value="active"/>
          </coding>
        </status>
        <legalStatusOfSupply>
          <coding>
            <system value="https://spor.ema.europa.eu/rmswi"/>
            <code value="100000072084"/>
            <display value="Medicinal product subject to medical prescription"/>
          </coding>
        </legalStatusOfSupply>
        <name>
          <productName value="amoxicillin 250 mg tablets"/>
          <type>
            <coding>
              <system value="https://spor.ema.europa.eu/lists/220000000000"/>
              <code value="220000000001"/>
              <display value="Full name"/>
            </coding>
          </type>
          <part>
            <part value="Amoxicillin"/>
            <type>
              <coding>
                <system value="https://spor.ema.europa.eu/lists/220000000000"/>
                <code value="220000000002"/>
                <display value="Invented name part"/>
              </coding>
            </type>
          </part>
          <part>
            <part value="AMOXY"/>
            <type>
              <coding>
                <system value="https://spor.ema.europa.eu/lists/220000000000"/>
                <code value="220000000003"/>
                <display value="Scientific name part"/>
              </coding>
            </type>
          </part>
          <part>
            <part value="250 mg"/>
            <type>
              <coding>
                <system value="https://spor.ema.europa.eu/lists/220000000000"/>
                <code value="220000000004"/>
                <display value="Strength part"/>
              </coding>
            </type>
          </part>
          <part>
            <part value="tablet"/>
            <type>
              <coding>
                <system value="https://spor.ema.europa.eu/lists/220000000000"/>
                <code value="220000000005"/>
                <display value="Pharmaceutical dose form part"/>
              </coding>
            </type>
          </part>
          <usage>
            <country>
              <coding>
                <system value="urn:iso:std:iso:3166"/>
                <code value="UK"/>
                <display value="United kingdom"/>
              </coding>
            </country>
            <jurisdiction>
              <coding>
                <system value="urn:iso:std:iso:3166"/>
                <code value="UK"/>
                <display value="United kingdom"/>
              </coding>
            </jurisdiction>
            <language>
              <coding>
                <system value="urn:ietf:bcp:47"/>
                <code value="en"/>
                <display value="English"/>
              </coding>
            </language>
          </usage>
        </name>
      </MedicinalProductDefinition>
    </resource>
  </entry>
  <entry>
    <fullUrl value="http://hl7.eu/fhir/ig/gravitate-health/ManufacturedItemDefinition/mid-b62cc095c7be2116a8a65157286376a3"/>
    <resource>
      <ManufacturedItemDefinition>
        <id value="mid-b62cc095c7be2116a8a65157286376a3"/>
        <meta>
          <profile value="http://hl7.org/fhir/uv/emedicinal-product-info/StructureDefinition/ManufacturedItemDefinition-uv-epi"/>
        </meta>
        <text>
          <status value="generated"/><div xmlns="http://www.w3.org/1999/xhtml"><p><b>Generated Narrative: ManufacturedItemDefinition</b><a name="mid-b62cc095c7be2116a8a65157286376a3"> </a></p><div style="display: inline-block; background-color: #d9e0e7; padding: 6px; margin: 4px; border: 1px solid #8da1b4; border-radius: 5px; line-height: 60%"><p style="margin-bottom: 0px">Resource ManufacturedItemDefinition &quot;mid-b62cc095c7be2116a8a65157286376a3&quot; </p><p style="margin-bottom: 0px">Profile: <a href="https://build.fhir.org/ig/HL7/emedicinal-product-info//StructureDefinition-ManufacturedItemDefinition-uv-epi.html">ManufacturedItemDefinition (ePI)</a></p></div><p><b>identifier</b>: <code>https://spor.ema.europa.eu/pmswi</code>/106036 (use: OFFICIAL)</p><p><b>status</b>: active</p><p><b>manufacturedDoseForm</b>: Capsule <span style="background: LightGoldenRodYellow; margin: 4px; border: 1px solid khaki"> (#200000016452)</span></p><p><b>unitOfPresentation</b>: Capsule <span style="background: LightGoldenRodYellow; margin: 4px; border: 1px solid khaki"> (rmswi#200000002113)</span></p></div>
        </text>
        <identifier>
          <use value="official"/>
          <system value="https://spor.ema.europa.eu/pmswi"/>
          <value value="106036"/>
        </identifier>
        <status value="active"/>
        <manufacturedDoseForm>
          <coding>
            <system value="https://spor.ema.europa.eu/rmswi/"/>
            <code value="200000016452"/>
            <display value="Capsule"/>
          </coding>
        </manufacturedDoseForm>
        <unitOfPresentation>
          <coding>
            <system value="https://spor.ema.europa.eu/rmswi"/>
            <code value="200000002113"/>
            <display value="Capsule"/>
          </coding>
        </unitOfPresentation>
      </ManufacturedItemDefinition>
    </resource>
  </entry>
</Bundle>