<?xml version="1.0" encoding="UTF-8"?>

<Bundle xmlns="http://hl7.org/fhir">
  <id value="bundlepackageleaflet-es-4fab126d28f65a1084e7b50a23200363"/>
  <meta>
    <profile value="http://hl7.org/fhir/uv/emedicinal-product-info/StructureDefinition/Bundle-uv-epi"/>
  </meta>
  <language value="es"/>
  <identifier>
    <system value="https://www.gravitatehealth.eu/sid/doc"/>
    <value value="EU/1/98/071/004"/>
  </identifier>
  <type value="document"/>
  <timestamp value="2023-06-27T10:09:22Z"/>
  <entry>
    <fullUrl value="http://hl7.eu/fhir/ig/gravitate-health/Composition/composition-es-bc60fa1aa0bfe774d11ee13c0c131622"/>
    <resource>
      <Composition>
        <id value="composition-es-bc60fa1aa0bfe774d11ee13c0c131622"/>
        <meta>
          <profile value="http://hl7.org/fhir/uv/emedicinal-product-info/StructureDefinition/Composition-uv-epi"/>
        </meta>
        <language value="es"/>
        <text>
          <status value="generated"/><div xmlns="http://www.w3.org/1999/xhtml" xml:lang="es" lang="es"><a name="Composition_composition-es-bc60fa1aa0bfe774d11ee13c0c131622"> </a><p><b>Generated Narrative: Composition</b><a name="composition-es-bc60fa1aa0bfe774d11ee13c0c131622"> </a><a name="hccomposition-es-bc60fa1aa0bfe774d11ee13c0c131622"> </a></p><div style="display: inline-block; background-color: #d9e0e7; padding: 6px; margin: 4px; border: 1px solid #8da1b4; border-radius: 5px; line-height: 60%"><p style="margin-bottom: 0px">Resource Composition &quot;composition-es-bc60fa1aa0bfe774d11ee13c0c131622&quot;  (Language &quot;es&quot;) </p><p style="margin-bottom: 0px">Profile: <a href="https://build.fhir.org/ig/HL7/emedicinal-product-info//StructureDefinition-Composition-uv-epi.html">Composition (ePI)</a></p></div><p><b>identifier</b>: <code>https://spor.ema.europa.eu/rmswi/</code>/EU/1/13/853/001</p><p><b>status</b>: final</p><p><b>type</b>: Package Leaflet <span style="background: LightGoldenRodYellow; margin: 4px; border: 1px solid khaki"> (#100000155538)</span></p><p><b>category</b>: Raw <span style="background: LightGoldenRodYellow; margin: 4px; border: 1px solid khaki"> (<a href="CodeSystem-epicategory-cs.html">Category of EPI</a>#R)</span></p><p><b>date</b>: 2022-02-16 13:28:17+0000</p><p><b>author</b>: <a href="#Organization_mah-4aaf055c3c7bab96579cd18496b045eb">See above (Organization/mah-4aaf055c3c7bab96579cd18496b045eb)</a></p><p><b>title</b>: TEST PURPOSES ONLY - Xenical 120mg hard capsules</p><h3>Attesters</h3><table class="grid"><tr><td style="display: none">-</td><td><b>Mode</b></td><td><b>Time</b></td></tr><tr><td style="display: none">*</td><td>Official <span style="background: LightGoldenRodYellow; margin: 4px; border: 1px solid khaki"> (<a href="http://hl7.org/fhir/R5/codesystem-composition-attestation-mode.html">Composition Attestation Mode</a>#official)</span></td><td>2022-02-16 13:28:17+0000</td></tr></table></div>
        </text>
        <identifier>
          <system value="https://spor.ema.europa.eu/rmswi/"/>
          <value value="EU/1/13/853/001"/>
        </identifier>
        <status value="final"/>
        <type>
          <coding>
            <system value="https://spor.ema.europa.eu/rmswi/"/>
            <code value="100000155538"/>
          </coding>
          <text value="Package Leaflet"/>
        </type>
        <category>
          <coding>
            <system value="http://hl7.eu/fhir/ig/gravitate-health/CodeSystem/epicategory-cs"/>
            <code value="R"/>
            <display value="Raw"/>
          </coding>
        </category>
        <subject>
          <reference value="MedicinalProductDefinition/mpbc60fa1aa0bfe774d11ee13c0c131622"/>
        </subject>
        <date value="2022-02-16T13:28:17Z"/>
        <author>
          <reference value="Organization/mah-4aaf055c3c7bab96579cd18496b045eb"/>
        </author>
        <title value="TEST PURPOSES ONLY - Xenical 120mg hard capsules"/>
        <attester>
          <mode>
            <coding>
              <system value="http://hl7.org/fhir/composition-attestation-mode"/>
              <code value="official"/>
            </coding>
          </mode>
          <time value="2022-02-16T13:28:17Z"/>
        </attester>
        <section>
          <title value="B. PROSPECTO"/>
          <code>
            <coding>
              <system value="https://spor.ema.europa.eu/rmswi/"/>
              <code value="100000155538"/>
            </coding>
            <text value="B. PROSPECTO"/>
          </code>
          <text>
            <status value="additional"/><div xmlns="http://www.w3.org/1999/xhtml">unavailable</div>
          </text>
          <emptyReason>
            <coding>
              <system value="http://terminology.hl7.org/CodeSystem/list-empty-reason"/>
              <code value="unavailable"/>
            </coding>
          </emptyReason>
          <section>
            <title value="PROSPECTO: INFORMACIÓN PARA EL USUARIO"/>
            <code>
              <coding>
                <system value="https://spor.ema.europa.eu/rmswi/"/>
                <code value="100000155538"/>
              </coding>
              <text value="PROSPECTO: INFORMACIÓN PARA EL USUARIO"/>
            </code>
            <text>
              <status value="additional"/><div xmlns="http://www.w3.org/1999/xhtml"><p>XENICAL 120 mg cápsulas duras Orlistat</p><p>Lea todo el prospecto detenidamente antes de empezar a tomar este medicamento, porque contiene información importante para usted.</p><p>Conserve este prospecto, ya que puede tener que volver a leerlo.</p><p>Si tiene alguna duda, consulte a su médico* farmacéutico.</p><p>Este medicamento se le ha recetado solamente a usted y no debe dárselo a otras personas, aunque tengan los mismos síntomas que usted, ya que puede perjudicarles.</p><p>Si experimenta efectos adversos, consulte a su médico* farmacéutico, incluso si se trata deefectos adversos que no aparecen en este prospecto. Ver sección 4</p></div>
            </text>
          </section>
          <section>
            <title value="Contenido del prospecto"/>
            <code>
              <coding>
                <system value="https://spor.ema.europa.eu/rmswi/"/>
                <code value="100000155538"/>
              </coding>
              <text value="Contenido del prospecto"/>
            </code>
            <text>
              <status value="additional"/><div xmlns="http://www.w3.org/1999/xhtml"><p>Contenido del prospecto:</p><ol><li>Qué es Xenical y para qué se utiliza</li><li>Qué necesita saber antes de empezar a tomar Xenical</li><li>Cómo tomar Xenical</li><li>Posibles efectos adversos</li><li>Conservación de Xenical</li><li>Contenido del envase e información adicional</li></ol></div>
            </text>
          </section>
          <section>
            <title value="1. Qué es XENICAL 120 mg cápsulas duras  y para qué se utiliza"/>
            <code>
              <coding>
                <system value="https://spor.ema.europa.eu/rmswi/"/>
                <code value="100000155538"/>
              </coding>
              <text value="1. Qué es XENICAL 120 mg cápsulas duras  y para qué se utiliza"/>
            </code>
            <text>
              <status value="additional"/><div xmlns="http://www.w3.org/1999/xhtml"><p>Xenical es un medicamento utilizado para tratar la obesidad. Actúa sobre su sistema digestivo evitando que se digiera alrededor de un tercio de la grasa contenida en la comida que ingiere.Xenical se une a enzimas de su sistema digestivo (lipasas) evitando que hidrolicen parte de las grasas que ha ingerido durante la comida. La grasa no digerida no puede absorberse y su cuerpo la elimina.</p><p>Xenical está indicado para el tratamiento de la obesidad, junto con una dieta con bajo contenido en calorías.</p></div>
            </text>
          </section>
          <section>
            <title value="2. Qué necesita saber antes de empezar a tomar XENICAL 120 mg cápsulas duras "/>
            <code>
              <coding>
                <system value="https://spor.ema.europa.eu/rmswi/"/>
                <code value="100000155538"/>
              </coding>
              <text value="2. Qué necesita saber antes de empezar a tomar XENICAL 120 mg cápsulas duras "/>
            </code>
            <text>
              <status value="additional"/><div xmlns="http://www.w3.org/1999/xhtml"><p>No tome XENICAL</p><ul><li>Si es alérgico (hipersensible) a orlistat o a cualquiera de los demás componentes de Xenical.</li><li>Si tiene síndrome de malabsorción crónica (absorción insuficiente de nutrientes a través del tracto digestivo).</li><li>Si tiene colestasis (trastorno del hígado).</li><li>Si está en periodo de lactancia</li></ul><p>Advertencias y precauciones La pérdida de peso puede también afectar a la dosis de los medicamentos que tome para otras situaciones (p. ej. colesterol alto o diabetes). Asegúrese de informar a su médico si está tomando éstos u otros medicamentos. La pérdida de peso puede significar que usted necesite un ajuste de la dosis de estos medicamentos.</p><p>Para obtener el máximo beneficio de Xenical debe seguir el programa de nutrición recomendado por su médico. Como ocurre con cualquier otro programa de control de peso, el consumo excesivo de grasa y calorías puede reducir el efecto en la pérdida de peso.</p><p>Este medicamento puede causar un cambio no perjudicial en sus hábitos de evacuación intestinal, tal como puede ser la presencia de heces grasas o aceitosas, debido a la eliminación por las heces de grasa sin digerir. La posibilidad de que esto ocurra puede aumentar si Xenical se toma con una dieta rica en grasa. Además, su ingesta diaria de grasa debe ser distribuida equitativamente entre las tres principales comidas ya que si Xenical se toma con una comida muy alta en grasa se puede incrementar la posibilidad de que se den efectos gastrointestinales.</p><p>En caso de diarrea grave podría haber un fallo de los anticonceptivos orales, por lo que se recomienda el uso de un método anticonceptivo adicional.</p><p>En pacientes con enfermedad renal crónica, el uso de Orlistat puede estar asociado a cálculos renales. Informe a su médico si tiene problemas de riñón.</p><p>Este medicamento contiene menos de 1 mmol de sodio (23 mg) por cápsula; esto es, esencialmente “exento de sodio”.</p><p><strong>Niños</strong></p><p>Xenical no está indicado para su uso en niños.</p><p>Toma de XENICAL con otros medicamentos Informe a su médico o farmacéutico si está tomando o ha tomado recientemente o podría tener que tomar cualquier otro medicamento.</p><p>Esto es importante ya que al utilizar más de un medicamento al mismo tiempo puede aumentar o disminuir su efecto.</p><p>Xenical puede modificar la acción de:</p><ul><li>Anticoagulantes (p. ej. warfarina), por ello, su médico puede necesitar monitorizar su coagulación sanguínea.</li><li>Ciclosporina. No se recomienda la administración conjunta con ciclosporina. Su médico puede necesitar monitorizar sus niveles plasmáticos de ciclosporina con mayor frecuencia de lo habitual.</li><li>Sales de yodo y/o levotiroxina. Pueden producir casos de hipotiroidismo y/o alteraciones del control del hipotiroidismo.</li><li>Amiodarona. Consulte con su médico.</li><li>Medicamentos para tratar el SIDA.</li><li>Medicamentos para la depresión, para trastornos psiquiátricos o para la ansiedad.</li></ul><p>Xenical reduce la absorción de suplementos de algunos nutrientes solubles en grasa, especialmente de beta-caroteno y vitamina E. Por lo tanto, deberá seguir el consejo de su médico y tomar una dieta equilibrada rica en fruta y verduras. Puede que su médico le recomiende un suplemento polivitamínico.</p><p>Orlistat puede alterar el tratamiento anticonvulsionante al disminuir la absorción de los medicamentos antiepilépticos, lo que puede llevar a la aparición de convulsiones. Consulte con su médico si considera que la frecuencia o gravedad de las convulsiones ha cambiado al tomar Xenical junto con medicamentos antiepilépticos.</p><p>No se recomienda Xenical para los que esten tomando acarbosa (fármaco anti-diabético usado para la diabetes Tipo 2).</p><p>Toma de XENICAL con alimentos, bebida y alcohol Xenical se puede tomar inmediatamente antes, durante la comida o hasta una hora después. Se debe tragar la cápsula con agua.</p><p><strong>Embarazo y lactancia</strong></p><p>No se recomienda tomar Xenical durante el embarazo. No debe amamantar a su hijo durante el tratamiento con Xenical, ya que se desconoce si Xenical pasa a la leche materna.</p><p><strong>Conducción y uso de máquinas</strong></p><p>Xenical no tiene ningún efecto conocido sobre la capacidad para conducir o utilizar maquinas.</p></div>
            </text>
          </section>
          <section>
            <title value="3. Cómo tomar XENICAL 120 mg cápsulas duras "/>
            <code>
              <coding>
                <system value="https://spor.ema.europa.eu/rmswi/"/>
                <code value="100000155538"/>
              </coding>
              <text value="3. Cómo tomar XENICAL 120 mg cápsulas duras "/>
            </code>
            <text>
              <status value="additional"/><div xmlns="http://www.w3.org/1999/xhtml"><p>Siga exactamente las instrucciones de administración de Xenical indicadas por su médico. En caso de duda, consulte a su médico o farmacéutico.La dosis recomendada de Xenical es de una cápsula de 120 mg tomada con cada una de las tres comidas principales del día. Se puede tomar inmediatamente antes, durante o hasta una hora después de la comida. La cápsula debe ser ingerida con agua.</p><p>Xenical debe ser tomado con una dieta con control de calorías, bien equilibrada, rica en frutas y verduras y que contenga una media del 30 % de las calorías provenientes de la grasa. Su ingesta diaria de grasas, hidratos de carbono y proteínas debe ser distribuida en tres comidas. Esto quiere decir que habitualmente tomará una cápsula en el desayuno, otra en la comida y otra en la cena. Para lograr beneficios óptimos, evite la ingesta de alimentos que contengan grasa entre las comidas, tales como galletas, chocolate o aperitivos salados.</p><p>Xenical actúa solamente en presencia de la grasas de la dieta. Por lo tanto, no necesita tomar Xenical si no toma alguna comida principal o si toma una comida que no contenga grasa. Si por cualquier motivo no ha tomado su medicina exactamente como se la han prescrito, dígaselo a su médico. De lo contrario, su médico puede pensar que éste medicamento no fue eficaz o bien tolerado y puede cambiar su tratamiento sin necesidad de ello.</p><p>Su médico interrumpirá el tratamiento con Xenical si después de 12 semanas no ha perdido al menos el 5 % de su peso al inicio del tratamiento.</p><p>Xenical ha sido estudiado en ensayos clínicos de hasta 4 años de duración.</p><p>Si toma más XENICAL del que debe Si toma más cápsulas de las que le ha indicado su médico, o si alguna otra persona ingiere su medicamento accidentalmente, contacte con su médico, farmacéutico u hospital ya que puede precisar atención médica.</p><p>Si olvidó tomar XENICAL Si olvida tomar su medicamento en cualquier momento, tómelo tan pronto como se acuerde a condición de que sea hasta una hora después de ingerir su comida y a continuación continúe tomándolo a los intervalos habituales. No tome una dosis doble para compensar las dosis olvidadas. Si ha dejado de tomar varias dosis, por favor, informe a su médico y siga el consejo que éste le dé.</p><p>No cambie por sí mismo la dosis prescrita a menos que se lo diga su médico.</p><p>Si tiene cualquier duda sobre el uso de este producto, pregunte a su medico o farmacéutico.</p></div>
            </text>
          </section>
          <section>
            <title value="4. Posibles efectos adversos"/>
            <code>
              <coding>
                <system value="https://spor.ema.europa.eu/rmswi/"/>
                <code value="100000155538"/>
              </coding>
              <text value="4. Posibles efectos adversos"/>
            </code>
            <text>
              <status value="additional"/><div xmlns="http://www.w3.org/1999/xhtml"><p>Al igual que todos los medicamentos, este medicamento puede producir efectos adversos, aunque no todas las personas los sufran.</p><p>Si no se encuentra bien mientras está tomando Xenical, coménteselo a su médico o farmacéutico lo antes posible.</p><p>La mayoría de los efectos no deseados relacionados con el uso de Xenical son resultado de su acción local sobre el sistema digestivo. Estos síntomas son generalmente moderados, ocurren al comienzo del tratamiento, y se presentan sobre todo después de comidas que tienen altos niveles de grasa. Normalmente, estos síntomas desaparecen si continúa con el tratamiento y sigue la dieta recomendada.</p><p>Efectos adversos muy frecuentes (afectan a más de 1 de cada 10 pacientes)</p><p>Cefalea, dolor o molestias abdominales, urgencia o aumento de la necesidad de defecar, flatulencia (gases) con incontinencia fecal, incontinencia fecal aceitosa, heces aceitosas o grasas, heces líquidas, bajos niveles de azúcar en sangre (experimentado por algunos pacientes con diabetes tipo 2)</p><p>Efectos adversos frecuentes (afectan a entre 1 y 10 de cada 100 pacientes)</p><p>Dolor o molestias rectales, heces blandas, incontinencia (fecal), hinchazón (experimentado por algunos pacientes con diabetes tipo 2), alteraciones en los dientes y las encías, irregularidad del ciclo menstrual, fatiga.</p><p>También se han comunicado los siguientes efectos adversos pero no se pueden estimar sus frecuencias a partir de los datos disponibles:</p><p>Reacciones alérgicas. Los síntomas principales son: picor, erupción cutánea, ronchas (zonas de piel ligeramente elevadas que pican y que están más pálidas o enrojecidas que la piel de alrededor), gran dificultad para respirar, náuseas, vómitos y malestar. Ampollas en la piel (incluyen las ampollas que se explotan). Diverticulitis. Sangrado rectal. Pueden detectarse incrementos en los niveles de enzimas del hígado en los análisis de sangre. Hepatitis (inflamación del hígado). Los síntomas pueden incluir coloración amarillenta de la piel y de los ojos, picor, orina de color oscuro, dolor de estómago y sensibilidad del hígado (indicado por dolor debajo de la parte frontal de la caja torácica en el lado derecho), algunas veces con pérdida de apetito. Deje de tomar Xenical si aparecen estos síntomas e informe a su médico. Cálculos biliares. Pancreatitis (inflamación del páncreas). Nefropatía por oxalato (desarrollada por el oxalato de calcio que puede originar cálculos renales). Véase Capítulo 2, Tenga especial cuidado con Xenical.Interacciones con anticoagulantes.</p><p>Comunicación de efectos adversos</p><p>Si experimenta cualquier tipo de efecto adverso, consulte a su médico o farmacéutico incluso si se trata de posibles efectos adversos que no aparecen en este prospecto. También puede comunicarlos directamente a través del sistema nacional de notificación incluido en el Anexo V*. Mediante la comunicación de efectos adversos usted puede contribuir a proporcionar más información sobre la seguridad de este medicamento.</p></div>
            </text>
          </section>
          <section>
            <title value="5. CONSERVACIÓN DE XENICAL 120 mg cápsulas duras "/>
            <code>
              <coding>
                <system value="https://spor.ema.europa.eu/rmswi/"/>
                <code value="100000155538"/>
              </coding>
              <text value="5. CONSERVACIÓN DE XENICAL 120 mg cápsulas duras "/>
            </code>
            <text>
              <status value="additional"/><div xmlns="http://www.w3.org/1999/xhtml"><p>Mantener fuera de la vista y del alcance de los niños.</p><p><strong>Blisters</strong></p><p>No utilice este medicamento después de la fecha de caducidad que aparece en el envase. No conservar a temperatura superior a 25 ºC Conservar en el embalaje original y mantener el blíster en el embalaje exterior para protegerlo de la luz y de la humedad.</p><p><strong>Frascos de cristal</strong></p><p>No utilice este medicamento después de la fecha de caducidad que aparece en el envase. No conservar a temperatura superior a 30 ºC Mantener el envase perfectamente cerrado para protegerlo de la humedad</p><p>Los medicamentos no se deben tirar por los desagües ni a la basura. Pregunte a su farmacéutico cómo deshacerse de los envases y de los medicamentos que ya no necesita. De esta forma ayudará a proteger el medio ambiente.</p></div>
            </text>
          </section>
          <section>
            <title value="6. Contenido del envase e información adicional"/>
            <code>
              <coding>
                <system value="https://spor.ema.europa.eu/rmswi/"/>
                <code value="100000155538"/>
              </coding>
              <text value="6. Contenido del envase e información adicional"/>
            </code>
            <text>
              <status value="additional"/><div xmlns="http://www.w3.org/1999/xhtml"><p>Composición de Xenical</p><ul><li>El principio activo es orlistat. Cada cápsula contiene 120 mg de orlistat.</li><li>Los demás componentes son celulosa microcristalina (E460), carboximetilalmidón sódico (tipo A), povidona (E1201), laurilsulfato de sodio y talco. La cubierta de la cápsula está compuesta de gelatina, índigo carmín (E132), dióxido de titanio (E171) y tinta comestible.</li></ul><p>Aspecto del producto y contenido del envase</p><p>Xenical son cápsulas de color turquesa con la inscripción &quot;XENICAL 120&quot; y se suministran en envases blister y frascos de vidrio conteniendo 21, 42 y 84 cápsulas.Puede que solamente estén comercializados algunos tamaños de envases.</p><p>Titular de la autorización de comercialización CHEPLAPHARM Arzneimittel GmbH Ziegelhof 17489 GreifswaldAlemania</p><p>Responsable de la fabricación CHEPLAPHARM Arzneimittel GmbH Bahnhofstr. 1a 17498 Mesekenhagen Alemania</p><p>CHEPLAPHARM Arzneimittel GmbH Ziegelhof 23-17489 GreifswaldAlemania</p><p>Fecha de la última revisión de este prospecto</p><p>La información detallada de este medicamento está disponible en la página web de la Agencia Europea de Medicamentos <a href="http://www.ema.europa.eu/">http://www.ema.europa.eu/</a>.</p></div>
            </text>
          </section>
        </section>
      </Composition>
    </resource>
  </entry>
  <entry>
    <fullUrl value="http://hl7.eu/fhir/ig/gravitate-health/Ingredient/ingredient-for-xenical-orlistat"/>
    <resource>
      <Ingredient>
        <id value="ingredient-for-xenical-orlistat"/>
        <meta>
          <profile value="http://hl7.org/fhir/uv/emedicinal-product-info/StructureDefinition/Ingredient-uv-epi"/>
        </meta>
        <text>
          <status value="generated"/><div xmlns="http://www.w3.org/1999/xhtml"><a name="Ingredient_ingredient-for-xenical-orlistat"> </a><p><b>Generated Narrative: Ingredient</b><a name="ingredient-for-xenical-orlistat"> </a><a name="hcingredient-for-xenical-orlistat"> </a></p><div style="display: inline-block; background-color: #d9e0e7; padding: 6px; margin: 4px; border: 1px solid #8da1b4; border-radius: 5px; line-height: 60%"><p style="margin-bottom: 0px">Resource Ingredient &quot;ingredient-for-xenical-orlistat&quot; </p><p style="margin-bottom: 0px">Profile: <a href="https://build.fhir.org/ig/HL7/emedicinal-product-info//StructureDefinition-Ingredient-uv-epi.html">Ingredient (ePI)</a></p></div><p><b>identifier</b>: <code>https://gsrs.ncats.nih.gov/ginas/app/beta</code>/95M8R751W8 (use: OFFICIAL)</p><p><b>status</b>: active</p><p><b>for</b>: </p><ul><li><a href="#ManufacturedItemDefinition_mid-4fab126d28f65a1084e7b50a23200363">See above (ManufacturedItemDefinition/mid-4fab126d28f65a1084e7b50a23200363)</a></li><li><a href="#MedicinalProductDefinition_mpbc60fa1aa0bfe774d11ee13c0c131622">See above (MedicinalProductDefinition/mpbc60fa1aa0bfe774d11ee13c0c131622)</a></li><li><a href="#AdministrableProductDefinition_ap-4fab126d28f65a1084e7b50a23200363">See above (AdministrableProductDefinition/ap-4fab126d28f65a1084e7b50a23200363)</a></li></ul><p><b>role</b>: active <span style="background: LightGoldenRodYellow; margin: 4px; border: 1px solid khaki"> (rmswi#72072)</span></p><blockquote><p><b>substance</b></p><h3>Codes</h3><table class="grid"><tr><td style="display: none">-</td><td><b>Concept</b></td></tr><tr><td style="display: none">*</td><td>ORLISTAT <span style="background: LightGoldenRodYellow; margin: 4px; border: 1px solid khaki"> (beta#95M8R751W8)</span></td></tr></table><h3>Strengths</h3><table class="grid"><tr><td style="display: none">-</td><td><b>Presentation[x]</b></td><td><b>Basis</b></td></tr><tr><td style="display: none">*</td><td>120 mg<span style="background: LightGoldenRodYellow"> (Details: UCUM code mg = 'mg')</span></td><td>active ingredient - basis of strength <span style="background: LightGoldenRodYellow; margin: 4px; border: 1px solid khaki"> (<a href="http://terminology.hl7.org/5.3.0/CodeSystem-v3-RoleClass.html">RoleClass</a>#ACTIB)</span></td></tr></table></blockquote></div>
        </text>
        <identifier>
          <use value="official"/>
          <system value="https://gsrs.ncats.nih.gov/ginas/app/beta"/>
          <value value="95M8R751W8"/>
        </identifier>
        <status value="active"/>
        <for>
          <reference value="ManufacturedItemDefinition/mid-4fab126d28f65a1084e7b50a23200363"/>
        </for>
        <for>
          <reference value="MedicinalProductDefinition/mpbc60fa1aa0bfe774d11ee13c0c131622"/>
        </for>
        <for>
          <reference value="AdministrableProductDefinition/ap-4fab126d28f65a1084e7b50a23200363"/>
        </for>
        <role>
          <coding>
            <system value="https://spor.ema.europa.eu/rmswi"/>
            <code value="72072"/>
            <display value="active"/>
          </coding>
        </role>
        <substance>
          <code>
            <concept>
              <coding>
                <system value="https://gsrs.ncats.nih.gov/ginas/app/beta"/>
                <code value="95M8R751W8"/>
                <display value="ORLISTAT"/>
              </coding>
            </concept>
          </code>
          <strength>
            <presentationQuantity>
              <value value="120"/>
              <system value="http://unitsofmeasure.org"/>
              <code value="mg"/>
            </presentationQuantity>
            <basis>
              <coding>
                <system value="http://terminology.hl7.org/CodeSystem/v3-RoleClass"/>
                <code value="ACTIB"/>
                <display value="active ingredient - basis of strength"/>
              </coding>
            </basis>
          </strength>
        </substance>
      </Ingredient>
    </resource>
  </entry>
  <entry>
    <fullUrl value="http://hl7.eu/fhir/ig/gravitate-health/Ingredient/ingredient-for-xenical-microcrystallinecellulose"/>
    <resource>
      <Ingredient>
        <id value="ingredient-for-xenical-microcrystallinecellulose"/>
        <meta>
          <profile value="http://hl7.org/fhir/uv/emedicinal-product-info/StructureDefinition/Ingredient-uv-epi"/>
        </meta>
        <text>
          <status value="generated"/><div xmlns="http://www.w3.org/1999/xhtml"><a name="Ingredient_ingredient-for-xenical-microcrystallinecellulose"> </a><p><b>Generated Narrative: Ingredient</b><a name="ingredient-for-xenical-microcrystallinecellulose"> </a><a name="hcingredient-for-xenical-microcrystallinecellulose"> </a></p><div style="display: inline-block; background-color: #d9e0e7; padding: 6px; margin: 4px; border: 1px solid #8da1b4; border-radius: 5px; line-height: 60%"><p style="margin-bottom: 0px">Resource Ingredient &quot;ingredient-for-xenical-microcrystallinecellulose&quot; </p><p style="margin-bottom: 0px">Profile: <a href="https://build.fhir.org/ig/HL7/emedicinal-product-info//StructureDefinition-Ingredient-uv-epi.html">Ingredient (ePI)</a></p></div><p><b>identifier</b>: <code>https://gsrs.ncats.nih.gov/ginas/app/beta</code>/OP1R32D61U (use: OFFICIAL)</p><p><b>status</b>: active</p><p><b>for</b>: </p><ul><li><a href="#ManufacturedItemDefinition_mid-4fab126d28f65a1084e7b50a23200363">See above (ManufacturedItemDefinition/mid-4fab126d28f65a1084e7b50a23200363)</a></li><li><a href="#MedicinalProductDefinition_mpbc60fa1aa0bfe774d11ee13c0c131622">See above (MedicinalProductDefinition/mpbc60fa1aa0bfe774d11ee13c0c131622)</a></li><li><a href="#AdministrableProductDefinition_ap-4fab126d28f65a1084e7b50a23200363">See above (AdministrableProductDefinition/ap-4fab126d28f65a1084e7b50a23200363)</a></li></ul><p><b>role</b>: Excipient <span style="background: LightGoldenRodYellow; margin: 4px; border: 1px solid khaki"> (rmswi#100000072082)</span></p><blockquote><p><b>substance</b></p><h3>Codes</h3><table class="grid"><tr><td style="display: none">-</td><td><b>Concept</b></td></tr><tr><td style="display: none">*</td><td>MICROCRYSTALLINE CELLULOSE <span style="background: LightGoldenRodYellow; margin: 4px; border: 1px solid khaki"> (beta#OP1R32D61U)</span></td></tr></table></blockquote></div>
        </text>
        <identifier>
          <use value="official"/>
          <system value="https://gsrs.ncats.nih.gov/ginas/app/beta"/>
          <value value="OP1R32D61U"/>
        </identifier>
        <status value="active"/>
        <for>
          <reference value="ManufacturedItemDefinition/mid-4fab126d28f65a1084e7b50a23200363"/>
        </for>
        <for>
          <reference value="MedicinalProductDefinition/mpbc60fa1aa0bfe774d11ee13c0c131622"/>
        </for>
        <for>
          <reference value="AdministrableProductDefinition/ap-4fab126d28f65a1084e7b50a23200363"/>
        </for>
        <role>
          <coding>
            <system value="https://spor.ema.europa.eu/rmswi"/>
            <code value="100000072082"/>
            <display value="Excipient"/>
          </coding>
        </role>
        <substance>
          <code>
            <concept>
              <coding>
                <system value="https://gsrs.ncats.nih.gov/ginas/app/beta"/>
                <code value="OP1R32D61U"/>
                <display value="MICROCRYSTALLINE CELLULOSE"/>
              </coding>
            </concept>
          </code>
        </substance>
      </Ingredient>
    </resource>
  </entry>
  <entry>
    <fullUrl value="http://hl7.eu/fhir/ig/gravitate-health/Ingredient/ingredient-for-xenical-sodiumstarchglycolatetypea"/>
    <resource>
      <Ingredient>
        <id value="ingredient-for-xenical-sodiumstarchglycolatetypea"/>
        <meta>
          <profile value="http://hl7.org/fhir/uv/emedicinal-product-info/StructureDefinition/Ingredient-uv-epi"/>
        </meta>
        <text>
          <status value="generated"/><div xmlns="http://www.w3.org/1999/xhtml"><a name="Ingredient_ingredient-for-xenical-sodiumstarchglycolatetypea"> </a><p><b>Generated Narrative: Ingredient</b><a name="ingredient-for-xenical-sodiumstarchglycolatetypea"> </a><a name="hcingredient-for-xenical-sodiumstarchglycolatetypea"> </a></p><div style="display: inline-block; background-color: #d9e0e7; padding: 6px; margin: 4px; border: 1px solid #8da1b4; border-radius: 5px; line-height: 60%"><p style="margin-bottom: 0px">Resource Ingredient &quot;ingredient-for-xenical-sodiumstarchglycolatetypea&quot; </p><p style="margin-bottom: 0px">Profile: <a href="https://build.fhir.org/ig/HL7/emedicinal-product-info//StructureDefinition-Ingredient-uv-epi.html">Ingredient (ePI)</a></p></div><p><b>identifier</b>: <code>https://gsrs.ncats.nih.gov/ginas/app/beta</code>/H8AV0SQX4D (use: OFFICIAL)</p><p><b>status</b>: active</p><p><b>for</b>: </p><ul><li><a href="#ManufacturedItemDefinition_mid-4fab126d28f65a1084e7b50a23200363">See above (ManufacturedItemDefinition/mid-4fab126d28f65a1084e7b50a23200363)</a></li><li><a href="#MedicinalProductDefinition_mpbc60fa1aa0bfe774d11ee13c0c131622">See above (MedicinalProductDefinition/mpbc60fa1aa0bfe774d11ee13c0c131622)</a></li><li><a href="#AdministrableProductDefinition_ap-4fab126d28f65a1084e7b50a23200363">See above (AdministrableProductDefinition/ap-4fab126d28f65a1084e7b50a23200363)</a></li></ul><p><b>role</b>: Excipient <span style="background: LightGoldenRodYellow; margin: 4px; border: 1px solid khaki"> (rmswi#100000072082)</span></p><blockquote><p><b>substance</b></p><h3>Codes</h3><table class="grid"><tr><td style="display: none">-</td><td><b>Concept</b></td></tr><tr><td style="display: none">*</td><td>SODIUM STARCH GLYCOLATE TYPE A <span style="background: LightGoldenRodYellow; margin: 4px; border: 1px solid khaki"> (beta#H8AV0SQX4D)</span></td></tr></table></blockquote></div>
        </text>
        <identifier>
          <use value="official"/>
          <system value="https://gsrs.ncats.nih.gov/ginas/app/beta"/>
          <value value="H8AV0SQX4D"/>
        </identifier>
        <status value="active"/>
        <for>
          <reference value="ManufacturedItemDefinition/mid-4fab126d28f65a1084e7b50a23200363"/>
        </for>
        <for>
          <reference value="MedicinalProductDefinition/mpbc60fa1aa0bfe774d11ee13c0c131622"/>
        </for>
        <for>
          <reference value="AdministrableProductDefinition/ap-4fab126d28f65a1084e7b50a23200363"/>
        </for>
        <role>
          <coding>
            <system value="https://spor.ema.europa.eu/rmswi"/>
            <code value="100000072082"/>
            <display value="Excipient"/>
          </coding>
        </role>
        <substance>
          <code>
            <concept>
              <coding>
                <system value="https://gsrs.ncats.nih.gov/ginas/app/beta"/>
                <code value="H8AV0SQX4D"/>
                <display value="SODIUM STARCH GLYCOLATE TYPE A"/>
              </coding>
            </concept>
          </code>
        </substance>
      </Ingredient>
    </resource>
  </entry>
  <entry>
    <fullUrl value="http://hl7.eu/fhir/ig/gravitate-health/Ingredient/ingredient-for-xenical-povidoneunspecified"/>
    <resource>
      <Ingredient>
        <id value="ingredient-for-xenical-povidoneunspecified"/>
        <meta>
          <profile value="http://hl7.org/fhir/uv/emedicinal-product-info/StructureDefinition/Ingredient-uv-epi"/>
        </meta>
        <text>
          <status value="generated"/><div xmlns="http://www.w3.org/1999/xhtml"><a name="Ingredient_ingredient-for-xenical-povidoneunspecified"> </a><p><b>Generated Narrative: Ingredient</b><a name="ingredient-for-xenical-povidoneunspecified"> </a><a name="hcingredient-for-xenical-povidoneunspecified"> </a></p><div style="display: inline-block; background-color: #d9e0e7; padding: 6px; margin: 4px; border: 1px solid #8da1b4; border-radius: 5px; line-height: 60%"><p style="margin-bottom: 0px">Resource Ingredient &quot;ingredient-for-xenical-povidoneunspecified&quot; </p><p style="margin-bottom: 0px">Profile: <a href="https://build.fhir.org/ig/HL7/emedicinal-product-info//StructureDefinition-Ingredient-uv-epi.html">Ingredient (ePI)</a></p></div><p><b>identifier</b>: <code>https://gsrs.ncats.nih.gov/ginas/app/beta</code>/FZ989GH94E (use: OFFICIAL)</p><p><b>status</b>: active</p><p><b>for</b>: </p><ul><li><a href="#ManufacturedItemDefinition_mid-4fab126d28f65a1084e7b50a23200363">See above (ManufacturedItemDefinition/mid-4fab126d28f65a1084e7b50a23200363)</a></li><li><a href="#MedicinalProductDefinition_mpbc60fa1aa0bfe774d11ee13c0c131622">See above (MedicinalProductDefinition/mpbc60fa1aa0bfe774d11ee13c0c131622)</a></li><li><a href="#AdministrableProductDefinition_ap-4fab126d28f65a1084e7b50a23200363">See above (AdministrableProductDefinition/ap-4fab126d28f65a1084e7b50a23200363)</a></li></ul><p><b>role</b>: Excipient <span style="background: LightGoldenRodYellow; margin: 4px; border: 1px solid khaki"> (rmswi#100000072082)</span></p><blockquote><p><b>substance</b></p><h3>Codes</h3><table class="grid"><tr><td style="display: none">-</td><td><b>Concept</b></td></tr><tr><td style="display: none">*</td><td>POVIDONE, UNSPECIFIED <span style="background: LightGoldenRodYellow; margin: 4px; border: 1px solid khaki"> (beta#FZ989GH94E)</span></td></tr></table></blockquote></div>
        </text>
        <identifier>
          <use value="official"/>
          <system value="https://gsrs.ncats.nih.gov/ginas/app/beta"/>
          <value value="FZ989GH94E"/>
        </identifier>
        <status value="active"/>
        <for>
          <reference value="ManufacturedItemDefinition/mid-4fab126d28f65a1084e7b50a23200363"/>
        </for>
        <for>
          <reference value="MedicinalProductDefinition/mpbc60fa1aa0bfe774d11ee13c0c131622"/>
        </for>
        <for>
          <reference value="AdministrableProductDefinition/ap-4fab126d28f65a1084e7b50a23200363"/>
        </for>
        <role>
          <coding>
            <system value="https://spor.ema.europa.eu/rmswi"/>
            <code value="100000072082"/>
            <display value="Excipient"/>
          </coding>
        </role>
        <substance>
          <code>
            <concept>
              <coding>
                <system value="https://gsrs.ncats.nih.gov/ginas/app/beta"/>
                <code value="FZ989GH94E"/>
                <display value="POVIDONE, UNSPECIFIED"/>
              </coding>
            </concept>
          </code>
        </substance>
      </Ingredient>
    </resource>
  </entry>
  <entry>
    <fullUrl value="http://hl7.eu/fhir/ig/gravitate-health/Ingredient/ingredient-for-xenical-sodiumlaurylsulfate"/>
    <resource>
      <Ingredient>
        <id value="ingredient-for-xenical-sodiumlaurylsulfate"/>
        <meta>
          <profile value="http://hl7.org/fhir/uv/emedicinal-product-info/StructureDefinition/Ingredient-uv-epi"/>
        </meta>
        <text>
          <status value="generated"/><div xmlns="http://www.w3.org/1999/xhtml"><a name="Ingredient_ingredient-for-xenical-sodiumlaurylsulfate"> </a><p><b>Generated Narrative: Ingredient</b><a name="ingredient-for-xenical-sodiumlaurylsulfate"> </a><a name="hcingredient-for-xenical-sodiumlaurylsulfate"> </a></p><div style="display: inline-block; background-color: #d9e0e7; padding: 6px; margin: 4px; border: 1px solid #8da1b4; border-radius: 5px; line-height: 60%"><p style="margin-bottom: 0px">Resource Ingredient &quot;ingredient-for-xenical-sodiumlaurylsulfate&quot; </p><p style="margin-bottom: 0px">Profile: <a href="https://build.fhir.org/ig/HL7/emedicinal-product-info//StructureDefinition-Ingredient-uv-epi.html">Ingredient (ePI)</a></p></div><p><b>identifier</b>: <code>https://gsrs.ncats.nih.gov/ginas/app/beta</code>/368GB5141J (use: OFFICIAL)</p><p><b>status</b>: active</p><p><b>for</b>: </p><ul><li><a href="#ManufacturedItemDefinition_mid-4fab126d28f65a1084e7b50a23200363">See above (ManufacturedItemDefinition/mid-4fab126d28f65a1084e7b50a23200363)</a></li><li><a href="#MedicinalProductDefinition_mpbc60fa1aa0bfe774d11ee13c0c131622">See above (MedicinalProductDefinition/mpbc60fa1aa0bfe774d11ee13c0c131622)</a></li><li><a href="#AdministrableProductDefinition_ap-4fab126d28f65a1084e7b50a23200363">See above (AdministrableProductDefinition/ap-4fab126d28f65a1084e7b50a23200363)</a></li></ul><p><b>role</b>: Excipient <span style="background: LightGoldenRodYellow; margin: 4px; border: 1px solid khaki"> (rmswi#100000072082)</span></p><blockquote><p><b>substance</b></p><h3>Codes</h3><table class="grid"><tr><td style="display: none">-</td><td><b>Concept</b></td></tr><tr><td style="display: none">*</td><td>SODIUM LAURYL SULFATE <span style="background: LightGoldenRodYellow; margin: 4px; border: 1px solid khaki"> (beta#368GB5141J)</span></td></tr></table></blockquote></div>
        </text>
        <identifier>
          <use value="official"/>
          <system value="https://gsrs.ncats.nih.gov/ginas/app/beta"/>
          <value value="368GB5141J"/>
        </identifier>
        <status value="active"/>
        <for>
          <reference value="ManufacturedItemDefinition/mid-4fab126d28f65a1084e7b50a23200363"/>
        </for>
        <for>
          <reference value="MedicinalProductDefinition/mpbc60fa1aa0bfe774d11ee13c0c131622"/>
        </for>
        <for>
          <reference value="AdministrableProductDefinition/ap-4fab126d28f65a1084e7b50a23200363"/>
        </for>
        <role>
          <coding>
            <system value="https://spor.ema.europa.eu/rmswi"/>
            <code value="100000072082"/>
            <display value="Excipient"/>
          </coding>
        </role>
        <substance>
          <code>
            <concept>
              <coding>
                <system value="https://gsrs.ncats.nih.gov/ginas/app/beta"/>
                <code value="368GB5141J"/>
                <display value="SODIUM LAURYL SULFATE"/>
              </coding>
            </concept>
          </code>
        </substance>
      </Ingredient>
    </resource>
  </entry>
  <entry>
    <fullUrl value="http://hl7.eu/fhir/ig/gravitate-health/Ingredient/ingredient-for-xenical-gelatinunspecified"/>
    <resource>
      <Ingredient>
        <id value="ingredient-for-xenical-gelatinunspecified"/>
        <meta>
          <profile value="http://hl7.org/fhir/uv/emedicinal-product-info/StructureDefinition/Ingredient-uv-epi"/>
        </meta>
        <text>
          <status value="generated"/><div xmlns="http://www.w3.org/1999/xhtml"><a name="Ingredient_ingredient-for-xenical-gelatinunspecified"> </a><p><b>Generated Narrative: Ingredient</b><a name="ingredient-for-xenical-gelatinunspecified"> </a><a name="hcingredient-for-xenical-gelatinunspecified"> </a></p><div style="display: inline-block; background-color: #d9e0e7; padding: 6px; margin: 4px; border: 1px solid #8da1b4; border-radius: 5px; line-height: 60%"><p style="margin-bottom: 0px">Resource Ingredient &quot;ingredient-for-xenical-gelatinunspecified&quot; </p><p style="margin-bottom: 0px">Profile: <a href="https://build.fhir.org/ig/HL7/emedicinal-product-info//StructureDefinition-Ingredient-uv-epi.html">Ingredient (ePI)</a></p></div><p><b>identifier</b>: <code>https://gsrs.ncats.nih.gov/ginas/app/beta</code>/2G86QN327L (use: OFFICIAL)</p><p><b>status</b>: active</p><p><b>for</b>: </p><ul><li><a href="#ManufacturedItemDefinition_mid-4fab126d28f65a1084e7b50a23200363">See above (ManufacturedItemDefinition/mid-4fab126d28f65a1084e7b50a23200363)</a></li><li><a href="#MedicinalProductDefinition_mpbc60fa1aa0bfe774d11ee13c0c131622">See above (MedicinalProductDefinition/mpbc60fa1aa0bfe774d11ee13c0c131622)</a></li><li><a href="#AdministrableProductDefinition_ap-4fab126d28f65a1084e7b50a23200363">See above (AdministrableProductDefinition/ap-4fab126d28f65a1084e7b50a23200363)</a></li></ul><p><b>role</b>: Excipient <span style="background: LightGoldenRodYellow; margin: 4px; border: 1px solid khaki"> (rmswi#100000072082)</span></p><blockquote><p><b>substance</b></p><h3>Codes</h3><table class="grid"><tr><td style="display: none">-</td><td><b>Concept</b></td></tr><tr><td style="display: none">*</td><td>GELATIN, UNSPECIFIED <span style="background: LightGoldenRodYellow; margin: 4px; border: 1px solid khaki"> (beta#2G86QN327L)</span></td></tr></table></blockquote></div>
        </text>
        <identifier>
          <use value="official"/>
          <system value="https://gsrs.ncats.nih.gov/ginas/app/beta"/>
          <value value="2G86QN327L"/>
        </identifier>
        <status value="active"/>
        <for>
          <reference value="ManufacturedItemDefinition/mid-4fab126d28f65a1084e7b50a23200363"/>
        </for>
        <for>
          <reference value="MedicinalProductDefinition/mpbc60fa1aa0bfe774d11ee13c0c131622"/>
        </for>
        <for>
          <reference value="AdministrableProductDefinition/ap-4fab126d28f65a1084e7b50a23200363"/>
        </for>
        <role>
          <coding>
            <system value="https://spor.ema.europa.eu/rmswi"/>
            <code value="100000072082"/>
            <display value="Excipient"/>
          </coding>
        </role>
        <substance>
          <code>
            <concept>
              <coding>
                <system value="https://gsrs.ncats.nih.gov/ginas/app/beta"/>
                <code value="2G86QN327L"/>
                <display value="GELATIN, UNSPECIFIED"/>
              </coding>
            </concept>
          </code>
        </substance>
      </Ingredient>
    </resource>
  </entry>
  <entry>
    <fullUrl value="http://hl7.eu/fhir/ig/gravitate-health/Ingredient/ingredient-for-xenical-titaniumdioxide"/>
    <resource>
      <Ingredient>
        <id value="ingredient-for-xenical-titaniumdioxide"/>
        <meta>
          <profile value="http://hl7.org/fhir/uv/emedicinal-product-info/StructureDefinition/Ingredient-uv-epi"/>
        </meta>
        <text>
          <status value="generated"/><div xmlns="http://www.w3.org/1999/xhtml"><a name="Ingredient_ingredient-for-xenical-titaniumdioxide"> </a><p><b>Generated Narrative: Ingredient</b><a name="ingredient-for-xenical-titaniumdioxide"> </a><a name="hcingredient-for-xenical-titaniumdioxide"> </a></p><div style="display: inline-block; background-color: #d9e0e7; padding: 6px; margin: 4px; border: 1px solid #8da1b4; border-radius: 5px; line-height: 60%"><p style="margin-bottom: 0px">Resource Ingredient &quot;ingredient-for-xenical-titaniumdioxide&quot; </p><p style="margin-bottom: 0px">Profile: <a href="https://build.fhir.org/ig/HL7/emedicinal-product-info//StructureDefinition-Ingredient-uv-epi.html">Ingredient (ePI)</a></p></div><p><b>identifier</b>: <code>https://gsrs.ncats.nih.gov/ginas/app/beta</code>/15FIX9V2JP (use: OFFICIAL)</p><p><b>status</b>: active</p><p><b>for</b>: </p><ul><li><a href="#ManufacturedItemDefinition_mid-4fab126d28f65a1084e7b50a23200363">See above (ManufacturedItemDefinition/mid-4fab126d28f65a1084e7b50a23200363)</a></li><li><a href="#MedicinalProductDefinition_mpbc60fa1aa0bfe774d11ee13c0c131622">See above (MedicinalProductDefinition/mpbc60fa1aa0bfe774d11ee13c0c131622)</a></li><li><a href="#AdministrableProductDefinition_ap-4fab126d28f65a1084e7b50a23200363">See above (AdministrableProductDefinition/ap-4fab126d28f65a1084e7b50a23200363)</a></li></ul><p><b>role</b>: Excipient <span style="background: LightGoldenRodYellow; margin: 4px; border: 1px solid khaki"> (rmswi#100000072082)</span></p><blockquote><p><b>substance</b></p><h3>Codes</h3><table class="grid"><tr><td style="display: none">-</td><td><b>Concept</b></td></tr><tr><td style="display: none">*</td><td>TITANIUM DIOXIDE <span style="background: LightGoldenRodYellow; margin: 4px; border: 1px solid khaki"> (beta#15FIX9V2JP)</span></td></tr></table></blockquote></div>
        </text>
        <identifier>
          <use value="official"/>
          <system value="https://gsrs.ncats.nih.gov/ginas/app/beta"/>
          <value value="15FIX9V2JP"/>
        </identifier>
        <status value="active"/>
        <for>
          <reference value="ManufacturedItemDefinition/mid-4fab126d28f65a1084e7b50a23200363"/>
        </for>
        <for>
          <reference value="MedicinalProductDefinition/mpbc60fa1aa0bfe774d11ee13c0c131622"/>
        </for>
        <for>
          <reference value="AdministrableProductDefinition/ap-4fab126d28f65a1084e7b50a23200363"/>
        </for>
        <role>
          <coding>
            <system value="https://spor.ema.europa.eu/rmswi"/>
            <code value="100000072082"/>
            <display value="Excipient"/>
          </coding>
        </role>
        <substance>
          <code>
            <concept>
              <coding>
                <system value="https://gsrs.ncats.nih.gov/ginas/app/beta"/>
                <code value="15FIX9V2JP"/>
                <display value="TITANIUM DIOXIDE"/>
              </coding>
            </concept>
          </code>
        </substance>
      </Ingredient>
    </resource>
  </entry>
  <entry>
    <fullUrl value="http://hl7.eu/fhir/ig/gravitate-health/SubstanceDefinition/substance-orlistat"/>
    <resource>
      <SubstanceDefinition>
        <id value="substance-orlistat"/>
        <meta>
          <profile value="http://hl7.org/fhir/uv/emedicinal-product-info/StructureDefinition/SubstanceDefinition-uv-epi"/>
        </meta>
        <text>
          <status value="generated"/><div xmlns="http://www.w3.org/1999/xhtml"><a name="SubstanceDefinition_substance-orlistat"> </a><p><b>Generated Narrative: SubstanceDefinition</b><a name="substance-orlistat"> </a><a name="hcsubstance-orlistat"> </a></p><div style="display: inline-block; background-color: #d9e0e7; padding: 6px; margin: 4px; border: 1px solid #8da1b4; border-radius: 5px; line-height: 60%"><p style="margin-bottom: 0px">Resource SubstanceDefinition &quot;substance-orlistat&quot; </p><p style="margin-bottom: 0px">Profile: <a href="https://build.fhir.org/ig/HL7/emedicinal-product-info//StructureDefinition-SubstanceDefinition-uv-epi.html">SubstanceDefinition (ePI)</a></p></div><p><b>identifier</b>: <code>https://gsrs.ncats.nih.gov/ginas/app/beta/</code>/95M8R751W8 (use: OFFICIAL)</p><p><b>version</b>: 1</p><p><b>status</b>: Active <span style="background: LightGoldenRodYellow; margin: 4px; border: 1px solid khaki"> (<a href="http://hl7.org/fhir/R5/codesystem-publication-status.html">PublicationStatus</a>#active)</span></p><p><b>manufacturer</b>: <a href="#Organization_mah-4aaf055c3c7bab96579cd18496b045eb">See above (Organization/mah-4aaf055c3c7bab96579cd18496b045eb)</a></p><h3>MolecularWeights</h3><table class="grid"><tr><td style="display: none">-</td><td><b>Type</b></td><td><b>Amount</b></td></tr><tr><td style="display: none">*</td><td>exact <span style="background: LightGoldenRodYellow; margin: 4px; border: 1px solid khaki"> ()</span></td><td>495.74</td></tr></table><h3>Structures</h3><table class="grid"><tr><td style="display: none">-</td><td><b>MolecularFormula</b></td></tr><tr><td style="display: none">*</td><td>C29H53NO5</td></tr></table><h3>Names</h3><table class="grid"><tr><td style="display: none">-</td><td><b>Name</b></td><td><b>Type</b></td></tr><tr><td style="display: none">*</td><td>L-LEUCINE, N-FORMYL-, 1-((3-HEXYL-4-OXO-2-OXETANYL)METHYL)DODECYL ESTER, (2S-(2.ALPHA.(R*),3.BETA.))-</td><td>Chemical Name <span style="background: LightGoldenRodYellow; margin: 4px; border: 1px solid khaki"> (#x)</span></td></tr></table></div>
        </text>
        <identifier>
          <use value="official"/>
          <system value="https://gsrs.ncats.nih.gov/ginas/app/beta/"/>
          <value value="95M8R751W8"/>
        </identifier>
        <version value="1"/>
        <status>
          <coding>
            <system value="http://hl7.org/fhir/publication-status"/>
            <code value="active"/>
          </coding>
        </status>
        <manufacturer>
          <reference value="Organization/mah-4aaf055c3c7bab96579cd18496b045eb"/>
        </manufacturer>
        <molecularWeight>
          <type>
            <text value="exact"/>
          </type>
          <amount>
            <value value="495.74"/>
          </amount>
        </molecularWeight>
        <structure>
          <molecularFormula value="C29H53NO5"/>
        </structure>
        <name>
          <name value="L-LEUCINE, N-FORMYL-, 1-((3-HEXYL-4-OXO-2-OXETANYL)METHYL)DODECYL ESTER, (2S-(2.ALPHA.(R*),3.BETA.))-"/>
          <type>
            <coding>
              <system value="https://gsrs.ncats.nih.gov/ginas/app/beta/"/>
              <code value="x"/>
              <display value="Chemical Name"/>
            </coding>
          </type>
        </name>
      </SubstanceDefinition>
    </resource>
  </entry>
  <entry>
    <fullUrl value="http://hl7.eu/fhir/ig/gravitate-health/AdministrableProductDefinition/ap-4fab126d28f65a1084e7b50a23200363"/>
    <resource>
      <AdministrableProductDefinition>
        <id value="ap-4fab126d28f65a1084e7b50a23200363"/>
        <meta>
          <profile value="http://hl7.org/fhir/uv/emedicinal-product-info/StructureDefinition/AdministrableProductDefinition-uv-epi"/>
        </meta>
        <text>
          <status value="generated"/><div xmlns="http://www.w3.org/1999/xhtml"><a name="AdministrableProductDefinition_ap-4fab126d28f65a1084e7b50a23200363"> </a><p><b>Generated Narrative: AdministrableProductDefinition</b><a name="ap-4fab126d28f65a1084e7b50a23200363"> </a><a name="hcap-4fab126d28f65a1084e7b50a23200363"> </a></p><div style="display: inline-block; background-color: #d9e0e7; padding: 6px; margin: 4px; border: 1px solid #8da1b4; border-radius: 5px; line-height: 60%"><p style="margin-bottom: 0px">Resource AdministrableProductDefinition &quot;ap-4fab126d28f65a1084e7b50a23200363&quot; </p><p style="margin-bottom: 0px">Profile: <a href="https://build.fhir.org/ig/HL7/emedicinal-product-info//StructureDefinition-AdministrableProductDefinition-uv-epi.html">AdministrableProductDefinition (ePI)</a></p></div><p><b>identifier</b>: <code>https://spor.ema.europa.eu/pmswi</code>/EU/1/98/071/004</p><p><b>status</b>: active</p><p><b>formOf</b>: <a href="#MedicinalProductDefinition_mpbc60fa1aa0bfe774d11ee13c0c131622">See above (MedicinalProductDefinition/mpbc60fa1aa0bfe774d11ee13c0c131622)</a></p><p><b>administrableDoseForm</b>: Capsule, hard <span style="background: LightGoldenRodYellow; margin: 4px; border: 1px solid khaki"> (rmswi#100000073375)</span></p><p><b>unitOfPresentation</b>: Capsule, hard <span style="background: LightGoldenRodYellow; margin: 4px; border: 1px solid khaki"> (rmswi#100000073375)</span></p><p><b>producedFrom</b>: <a href="#ManufacturedItemDefinition_mid-4fab126d28f65a1084e7b50a23200363">See above (ManufacturedItemDefinition/mid-4fab126d28f65a1084e7b50a23200363)</a></p><blockquote><p><b>routeOfAdministration</b></p><p><b>code</b>: Oral use <span style="background: LightGoldenRodYellow; margin: 4px; border: 1px solid khaki"> (rmswi#100000073619)</span></p><h3>TargetSpecies</h3><table class="grid"><tr><td style="display: none">-</td><td><b>Code</b></td></tr><tr><td style="display: none">*</td><td>Human <span style="background: LightGoldenRodYellow; margin: 4px; border: 1px solid khaki"> (rmswi#100000109093)</span></td></tr></table></blockquote></div>
        </text>
        <identifier>
          <system value="https://spor.ema.europa.eu/pmswi"/>
          <value value="EU/1/98/071/004"/>
        </identifier>
        <status value="active"/>
        <formOf>
          <reference value="MedicinalProductDefinition/mpbc60fa1aa0bfe774d11ee13c0c131622"/>
        </formOf>
        <administrableDoseForm>
          <coding>
            <system value="https://spor.ema.europa.eu/rmswi"/>
            <code value="100000073375"/>
            <display value="Capsule, hard"/>
          </coding>
        </administrableDoseForm>
        <unitOfPresentation>
          <coding>
            <system value="https://spor.ema.europa.eu/rmswi"/>
            <code value="100000073375"/>
            <display value="Capsule, hard"/>
          </coding>
        </unitOfPresentation>
        <producedFrom>
          <reference value="ManufacturedItemDefinition/mid-4fab126d28f65a1084e7b50a23200363"/>
        </producedFrom>
        <routeOfAdministration>
          <code>
            <coding>
              <system value="https://spor.ema.europa.eu/rmswi"/>
              <code value="100000073619"/>
              <display value="Oral use"/>
            </coding>
          </code>
          <targetSpecies>
            <code>
              <coding>
                <system value="https://spor.ema.europa.eu/rmswi"/>
                <code value="100000109093"/>
                <display value="Human"/>
              </coding>
            </code>
          </targetSpecies>
        </routeOfAdministration>
      </AdministrableProductDefinition>
    </resource>
  </entry>
  <entry>
    <fullUrl value="http://hl7.eu/fhir/ig/gravitate-health/RegulatedAuthorization/authorization4fab126d28f65a1084e7b50a232003630"/>
    <resource>
      <RegulatedAuthorization>
        <id value="authorization4fab126d28f65a1084e7b50a232003630"/>
        <meta>
          <profile value="http://hl7.org/fhir/uv/emedicinal-product-info/StructureDefinition/RegulatedAuthorization-uv-epi"/>
        </meta>
        <text>
          <status value="generated"/><div xmlns="http://www.w3.org/1999/xhtml"><a name="RegulatedAuthorization_authorization4fab126d28f65a1084e7b50a232003630"> </a><p><b>Generated Narrative: RegulatedAuthorization</b><a name="authorization4fab126d28f65a1084e7b50a232003630"> </a><a name="hcauthorization4fab126d28f65a1084e7b50a232003630"> </a></p><div style="display: inline-block; background-color: #d9e0e7; padding: 6px; margin: 4px; border: 1px solid #8da1b4; border-radius: 5px; line-height: 60%"><p style="margin-bottom: 0px">Resource RegulatedAuthorization &quot;authorization4fab126d28f65a1084e7b50a232003630&quot; </p><p style="margin-bottom: 0px">Profile: <a href="https://build.fhir.org/ig/HL7/emedicinal-product-info//StructureDefinition-RegulatedAuthorization-uv-epi.html">RegulatedAuthorization (ePI)</a></p></div><p><b>identifier</b>: <code>https://spor.ema.europa.eu/pmswi</code>/EU/1/98/071/004 (use: OFFICIAL)</p><p><b>subject</b>: <a href="#MedicinalProductDefinition_mpbc60fa1aa0bfe774d11ee13c0c131622">See above (MedicinalProductDefinition/mpbc60fa1aa0bfe774d11ee13c0c131622)</a></p><p><b>type</b>: Marketing Authorisation <span style="background: LightGoldenRodYellow; margin: 4px; border: 1px solid khaki"> (rmswi#100000072062)</span></p><p><b>status</b>: Active <span style="background: LightGoldenRodYellow; margin: 4px; border: 1px solid khaki"> (<a href="http://hl7.org/fhir/R5/codesystem-publication-status.html">PublicationStatus</a>#active)</span></p><p><b>statusDate</b>: 2018-06-21</p><p><b>holder</b>: <a href="#Organization_mah-4aaf055c3c7bab96579cd18496b045eb">See above (Organization/mah-4aaf055c3c7bab96579cd18496b045eb)</a></p></div>
        </text>
        <identifier>
          <use value="official"/>
          <system value="https://spor.ema.europa.eu/pmswi"/>
          <value value="EU/1/98/071/004"/>
        </identifier>
        <subject>
          <reference value="MedicinalProductDefinition/mpbc60fa1aa0bfe774d11ee13c0c131622"/>
        </subject>
        <type>
          <coding>
            <system value="https://spor.ema.europa.eu/rmswi"/>
            <code value="100000072062"/>
            <display value="Marketing Authorisation"/>
          </coding>
        </type>
        <status>
          <coding>
            <system value="http://hl7.org/fhir/publication-status"/>
            <code value="active"/>
            <display value="Active"/>
          </coding>
        </status>
        <statusDate value="2018-06-21"/>
        <holder>
          <reference value="Organization/mah-4aaf055c3c7bab96579cd18496b045eb"/>
        </holder>
      </RegulatedAuthorization>
    </resource>
  </entry>
  <entry>
    <fullUrl value="http://hl7.eu/fhir/ig/gravitate-health/Organization/mah-4aaf055c3c7bab96579cd18496b045eb"/>
    <resource>
      <Organization>
        <id value="mah-4aaf055c3c7bab96579cd18496b045eb"/>
        <meta>
          <profile value="http://hl7.org/fhir/uv/emedicinal-product-info/StructureDefinition/Organization-uv-epi"/>
        </meta>
        <text>
          <status value="generated"/><div xmlns="http://www.w3.org/1999/xhtml"><a name="Organization_mah-4aaf055c3c7bab96579cd18496b045eb"> </a><p><b>Generated Narrative: Organization</b><a name="mah-4aaf055c3c7bab96579cd18496b045eb"> </a><a name="hcmah-4aaf055c3c7bab96579cd18496b045eb"> </a></p><div style="display: inline-block; background-color: #d9e0e7; padding: 6px; margin: 4px; border: 1px solid #8da1b4; border-radius: 5px; line-height: 60%"><p style="margin-bottom: 0px">Resource Organization &quot;mah-4aaf055c3c7bab96579cd18496b045eb&quot; </p><p style="margin-bottom: 0px">Profile: <a href="https://build.fhir.org/ig/HL7/emedicinal-product-info//StructureDefinition-Organization-uv-epi.html">Organization (ePI)</a></p></div><p><b>identifier</b>: <code>https://spor.ema.europa.eu/omswi</code>/ORG-100000214 (use: OFFICIAL)</p><p><b>active</b>: true</p><p><b>type</b>: Marketing authorisation holder <span style="background: LightGoldenRodYellow; margin: 4px; border: 1px solid khaki"> (rmswi#220000000034)</span></p><p><b>name</b>: CHEPLAPHARM Arzneimittel GmbH</p><h3>Contacts</h3><table class="grid"><tr><td style="display: none">-</td><td><b>Address</b></td></tr><tr><td style="display: none">*</td><td>Ziegelhof 24 17489 Greifswald Germany Greifswald Germany(WORK)</td></tr></table></div>
        </text>
        <identifier>
          <use value="official"/>
          <system value="https://spor.ema.europa.eu/omswi"/>
          <value value="ORG-100000214"/>
        </identifier>
        <active value="true"/>
        <type>
          <coding>
            <system value="https://spor.ema.europa.eu/rmswi"/>
            <code value="220000000034"/>
            <display value="Marketing authorisation holder"/>
          </coding>
        </type>
        <name value="CHEPLAPHARM Arzneimittel GmbH"/>
        <contact>
          <address>
            <use value="work"/>
            <type value="physical"/>
            <text value="Ziegelhof 24 17489 Greifswald Germany Greifswald Germany"/>
            <line value="Ziegelhof 24 17489 Greifswald Germany"/>
            <city value="Greifswald"/>
            <postalCode value="17489"/>
            <country value="Germany"/>
          </address>
        </contact>
      </Organization>
    </resource>
  </entry>
  <entry>
    <fullUrl value="http://hl7.eu/fhir/ig/gravitate-health/PackagedProductDefinition/ppd-352d83277f894aa6147981b6a4f36c07"/>
    <resource>
      <PackagedProductDefinition>
        <id value="ppd-352d83277f894aa6147981b6a4f36c07"/>
        <meta>
          <profile value="http://hl7.org/fhir/uv/emedicinal-product-info/StructureDefinition/PackagedProductDefinition-uv-epi"/>
        </meta>
        <text>
          <status value="generated"/><div xmlns="http://www.w3.org/1999/xhtml"><a name="PackagedProductDefinition_ppd-352d83277f894aa6147981b6a4f36c07"> </a><p><b>Generated Narrative: PackagedProductDefinition</b><a name="ppd-352d83277f894aa6147981b6a4f36c07"> </a><a name="hcppd-352d83277f894aa6147981b6a4f36c07"> </a></p><div style="display: inline-block; background-color: #d9e0e7; padding: 6px; margin: 4px; border: 1px solid #8da1b4; border-radius: 5px; line-height: 60%"><p style="margin-bottom: 0px">Resource PackagedProductDefinition &quot;ppd-352d83277f894aa6147981b6a4f36c07&quot; </p><p style="margin-bottom: 0px">Profile: <a href="https://build.fhir.org/ig/HL7/emedicinal-product-info//StructureDefinition-PackagedProductDefinition-uv-epi.html">PackagedProductDefinition (ePI)</a></p></div><p><b>identifier</b>: <code>https://spor.ema.europa.eu/pmswi</code>/EU/1/98/071/004 (use: OFFICIAL)</p><p><b>name</b>: Xenical 120mg hard capsules 1</p><p><b>type</b>: Chemical Medicinal Prodcut <span style="background: LightGoldenRodYellow; margin: 4px; border: 1px solid khaki"> (rmswi#100000155527)</span></p><p><b>packageFor</b>: <a href="#MedicinalProductDefinition_mpbc60fa1aa0bfe774d11ee13c0c131622">See above (MedicinalProductDefinition/mpbc60fa1aa0bfe774d11ee13c0c131622)</a></p><p><b>status</b>: Active <span style="background: LightGoldenRodYellow; margin: 4px; border: 1px solid khaki"> (<a href="http://hl7.org/fhir/R5/codesystem-publication-status.html">PublicationStatus</a>#active)</span></p><p><b>statusDate</b>: 2012-02-07 13:28:17+0000</p><p><b>containedItemQuantity</b>: 16 {capsules}<span style="background: LightGoldenRodYellow"> (Details: UCUM code {capsules} = '{capsules}')</span></p><blockquote><p><b>packaging</b></p><p><b>type</b>: Box <span style="background: LightGoldenRodYellow; margin: 4px; border: 1px solid khaki"> (rmswi#100000073498)</span></p><p><b>quantity</b>: 1</p><p><b>material</b>: Cardboard <span style="background: LightGoldenRodYellow; margin: 4px; border: 1px solid khaki"> (rmswi#200000003529)</span></p><blockquote><p><b>packaging</b></p><p><b>identifier</b>: <code>https://spor.ema.europa.eu/pmswi</code>/7777</p><p><b>type</b>: Box <span style="background: LightGoldenRodYellow; margin: 4px; border: 1px solid khaki"> (rmswi#100000073498)</span></p><p><b>quantity</b>: 1</p><p><b>material</b>: Cardboard <span style="background: LightGoldenRodYellow; margin: 4px; border: 1px solid khaki"> (rmswi#200000003529)</span></p><blockquote><p><b>containedItem</b></p></blockquote></blockquote></blockquote></div>
        </text>
        <identifier>
          <use value="official"/>
          <system value="https://spor.ema.europa.eu/pmswi"/>
          <value value="EU/1/98/071/004"/>
        </identifier>
        <name value="Xenical 120mg hard capsules 1"/>
        <type>
          <coding>
            <system value="https://spor.ema.europa.eu/rmswi"/>
            <code value="100000155527"/>
            <display value="Chemical Medicinal Prodcut"/>
          </coding>
        </type>
        <packageFor>
          <reference value="MedicinalProductDefinition/mpbc60fa1aa0bfe774d11ee13c0c131622"/>
        </packageFor>
        <status>
          <coding>
            <system value="http://hl7.org/fhir/publication-status"/>
            <code value="active"/>
            <display value="Active"/>
          </coding>
        </status>
        <statusDate value="2012-02-07T13:28:17Z"/>
        <containedItemQuantity>
          <value value="16"/>
          <system value="http://unitsofmeasure.org"/>
          <code value="{capsules}"/>
        </containedItemQuantity>
        <packaging>
          <type>
            <coding>
              <system value="https://spor.ema.europa.eu/rmswi"/>
              <code value="100000073498"/>
              <display value="Box"/>
            </coding>
          </type>
          <quantity value="1"/>
          <material>
            <coding>
              <system value="https://spor.ema.europa.eu/rmswi"/>
              <code value="200000003529"/>
              <display value="Cardboard"/>
            </coding>
          </material>
          <packaging>
            <identifier>
              <system value="https://spor.ema.europa.eu/pmswi"/>
              <value value="7777"/>
            </identifier>
            <type>
              <coding>
                <system value="https://spor.ema.europa.eu/rmswi"/>
                <code value="100000073498"/>
                <display value="Box"/>
              </coding>
            </type>
            <quantity value="1"/>
            <material>
              <coding>
                <system value="https://spor.ema.europa.eu/rmswi"/>
                <code value="200000003529"/>
                <display value="Cardboard"/>
              </coding>
            </material>
            <containedItem>
              <item>
                <reference>
                  <reference value="ManufacturedItemDefinition/mid-4fab126d28f65a1084e7b50a23200363"/>
                </reference>
              </item>
            </containedItem>
          </packaging>
        </packaging>
      </PackagedProductDefinition>
    </resource>
  </entry>
  <entry>
    <fullUrl value="http://hl7.eu/fhir/ig/gravitate-health/MedicinalProductDefinition/mpbc60fa1aa0bfe774d11ee13c0c131622"/>
    <resource>
      <MedicinalProductDefinition>
        <id value="mpbc60fa1aa0bfe774d11ee13c0c131622"/>
        <meta>
          <profile value="http://hl7.org/fhir/uv/emedicinal-product-info/StructureDefinition/MedicinalProductDefinition-uv-epi"/>
        </meta>
        <text>
          <status value="generated"/><div xmlns="http://www.w3.org/1999/xhtml"><a name="MedicinalProductDefinition_mpbc60fa1aa0bfe774d11ee13c0c131622"> </a><p><b>Generated Narrative: MedicinalProductDefinition</b><a name="mpbc60fa1aa0bfe774d11ee13c0c131622"> </a><a name="hcmpbc60fa1aa0bfe774d11ee13c0c131622"> </a></p><div style="display: inline-block; background-color: #d9e0e7; padding: 6px; margin: 4px; border: 1px solid #8da1b4; border-radius: 5px; line-height: 60%"><p style="margin-bottom: 0px">Resource MedicinalProductDefinition &quot;mpbc60fa1aa0bfe774d11ee13c0c131622&quot; </p><p style="margin-bottom: 0px">Profile: <a href="https://build.fhir.org/ig/HL7/emedicinal-product-info//StructureDefinition-MedicinalProductDefinition-uv-epi.html">MedicinalProductDefinition (ePI)</a></p></div><p><b>identifier</b>: <code>https://spor.ema.europa.eu/pmswi</code>/EU/1/98/071/004, <code>https://www.who-umc.org/phpid</code>/0xF79CABF272B6A7EEF104DDDA44E82809</p><p><b>type</b>: Medicinal Product <span style="background: LightGoldenRodYellow; margin: 4px; border: 1px solid khaki"> (<a href="http://hl7.org/fhir/R5/codesystem-medicinal-product-type.html">Medicinal Product Type</a>#MedicinalProduct)</span></p><p><b>domain</b>: Human use <span style="background: LightGoldenRodYellow; margin: 4px; border: 1px solid khaki"> (<a href="http://hl7.org/fhir/R5/codesystem-medicinal-product-domain.html">Medicinal Product Domain</a>#Human)</span></p><p><b>status</b>: active <span style="background: LightGoldenRodYellow; margin: 4px; border: 1px solid khaki"> (<a href="http://hl7.org/fhir/R5/codesystem-publication-status.html">PublicationStatus</a>#active)</span></p><p><b>legalStatusOfSupply</b>: Medicinal product subject to medical prescription <span style="background: LightGoldenRodYellow; margin: 4px; border: 1px solid khaki"> (rmswi#100000072084)</span></p><blockquote><p><b>name</b></p><p><b>productName</b>: Xenical 120mg hard capsules</p><p><b>type</b>: Full name <span style="background: LightGoldenRodYellow; margin: 4px; border: 1px solid khaki"> (220000000000#220000000001)</span></p><blockquote><p><b>part</b></p><p><b>part</b>: Xenical</p><p><b>type</b>: Invented name part <span style="background: LightGoldenRodYellow; margin: 4px; border: 1px solid khaki"> (220000000000#220000000002)</span></p></blockquote><blockquote><p><b>part</b></p><p><b>part</b>: Orlistat</p><p><b>type</b>: Scientific name part <span style="background: LightGoldenRodYellow; margin: 4px; border: 1px solid khaki"> (220000000000#220000000003)</span></p></blockquote><blockquote><p><b>part</b></p><p><b>part</b>: 120mg</p><p><b>type</b>: Strength part <span style="background: LightGoldenRodYellow; margin: 4px; border: 1px solid khaki"> (220000000000#220000000004)</span></p></blockquote><blockquote><p><b>part</b></p><p><b>part</b>: hard capsules</p><p><b>type</b>: Pharmaceutical dose form part <span style="background: LightGoldenRodYellow; margin: 4px; border: 1px solid khaki"> (220000000000#220000000005)</span></p></blockquote><h3>Usages</h3><table class="grid"><tr><td style="display: none">-</td><td><b>Country</b></td><td><b>Jurisdiction</b></td><td><b>Language</b></td></tr><tr><td style="display: none">*</td><td>United Kingdom <span style="background: LightGoldenRodYellow; margin: 4px; border: 1px solid khaki"> (<a href="http://terminology.hl7.org/5.3.0/CodeSystem-ISO3166Part1.html">ISO 3166-1 Codes for the representation of names of countries and their subdivisions — Part 1: Country code</a>#GBR)</span></td><td>United Kingdom <span style="background: LightGoldenRodYellow; margin: 4px; border: 1px solid khaki"> (<a href="http://terminology.hl7.org/5.3.0/CodeSystem-ISO3166Part1.html">ISO 3166-1 Codes for the representation of names of countries and their subdivisions — Part 1: Country code</a>#GBR)</span></td><td>English <span style="background: LightGoldenRodYellow; margin: 4px; border: 1px solid khaki"> (<a href="http://terminology.hl7.org/5.3.0/CodeSystem-v3-ietf3066.html">Tags for the Identification of Languages</a>#en)</span></td></tr></table></blockquote></div>
        </text>
        <identifier>
          <system value="https://spor.ema.europa.eu/pmswi"/>
          <value value="EU/1/98/071/004"/>
        </identifier>
        <identifier>
          <system value="https://www.who-umc.org/phpid"/>
          <value value="0xF79CABF272B6A7EEF104DDDA44E82809"/>
        </identifier>
        <type>
          <coding>
            <system value="http://hl7.org/fhir/medicinal-product-type"/>
            <code value="MedicinalProduct"/>
            <display value="Medicinal Product"/>
          </coding>
        </type>
        <domain>
          <coding>
            <system value="http://hl7.org/fhir/medicinal-product-domain"/>
            <code value="Human"/>
            <display value="Human use"/>
          </coding>
        </domain>
        <status>
          <coding>
            <system value="http://hl7.org/fhir/publication-status"/>
            <code value="active"/>
            <display value="active"/>
          </coding>
        </status>
        <legalStatusOfSupply>
          <coding>
            <system value="https://spor.ema.europa.eu/rmswi"/>
            <code value="100000072084"/>
            <display value="Medicinal product subject to medical prescription"/>
          </coding>
        </legalStatusOfSupply>
        <name>
          <productName value="Xenical 120mg hard capsules"/>
          <type>
            <coding>
              <system value="https://spor.ema.europa.eu/lists/220000000000"/>
              <code value="220000000001"/>
              <display value="Full name"/>
            </coding>
          </type>
          <part>
            <part value="Xenical"/>
            <type>
              <coding>
                <system value="https://spor.ema.europa.eu/lists/220000000000"/>
                <code value="220000000002"/>
                <display value="Invented name part"/>
              </coding>
            </type>
          </part>
          <part>
            <part value="Orlistat"/>
            <type>
              <coding>
                <system value="https://spor.ema.europa.eu/lists/220000000000"/>
                <code value="220000000003"/>
                <display value="Scientific name part"/>
              </coding>
            </type>
          </part>
          <part>
            <part value="120mg"/>
            <type>
              <coding>
                <system value="https://spor.ema.europa.eu/lists/220000000000"/>
                <code value="220000000004"/>
                <display value="Strength part"/>
              </coding>
            </type>
          </part>
          <part>
            <part value="hard capsules"/>
            <type>
              <coding>
                <system value="https://spor.ema.europa.eu/lists/220000000000"/>
                <code value="220000000005"/>
                <display value="Pharmaceutical dose form part"/>
              </coding>
            </type>
          </part>
          <usage>
            <country>
              <coding>
                <system value="urn:iso:std:iso:3166"/>
                <code value="GBR"/>
                <display value="United Kingdom"/>
              </coding>
            </country>
            <jurisdiction>
              <coding>
                <system value="urn:iso:std:iso:3166"/>
                <code value="GBR"/>
                <display value="United Kingdom"/>
              </coding>
            </jurisdiction>
            <language>
              <coding>
                <system value="urn:ietf:bcp:47"/>
                <code value="en"/>
                <display value="English"/>
              </coding>
            </language>
          </usage>
        </name>
      </MedicinalProductDefinition>
    </resource>
  </entry>
  <entry>
    <fullUrl value="http://hl7.eu/fhir/ig/gravitate-health/ManufacturedItemDefinition/mid-4fab126d28f65a1084e7b50a23200363"/>
    <resource>
      <ManufacturedItemDefinition>
        <id value="mid-4fab126d28f65a1084e7b50a23200363"/>
        <meta>
          <profile value="http://hl7.org/fhir/uv/emedicinal-product-info/StructureDefinition/ManufacturedItemDefinition-uv-epi"/>
        </meta>
        <text>
          <status value="generated"/><div xmlns="http://www.w3.org/1999/xhtml"><a name="ManufacturedItemDefinition_mid-4fab126d28f65a1084e7b50a23200363"> </a><p><b>Generated Narrative: ManufacturedItemDefinition</b><a name="mid-4fab126d28f65a1084e7b50a23200363"> </a><a name="hcmid-4fab126d28f65a1084e7b50a23200363"> </a></p><div style="display: inline-block; background-color: #d9e0e7; padding: 6px; margin: 4px; border: 1px solid #8da1b4; border-radius: 5px; line-height: 60%"><p style="margin-bottom: 0px">Resource ManufacturedItemDefinition &quot;mid-4fab126d28f65a1084e7b50a23200363&quot; </p><p style="margin-bottom: 0px">Profile: <a href="https://build.fhir.org/ig/HL7/emedicinal-product-info//StructureDefinition-ManufacturedItemDefinition-uv-epi.html">ManufacturedItemDefinition (ePI)</a></p></div><p><b>identifier</b>: <code>https://spor.ema.europa.eu/pmswi</code>/EU/1/98/071/004 (use: OFFICIAL)</p><p><b>status</b>: active</p><p><b>manufacturedDoseForm</b>: Capsule, hard <span style="background: LightGoldenRodYellow; margin: 4px; border: 1px solid khaki"> (#100000073375)</span></p><p><b>unitOfPresentation</b>: Capsule, hard <span style="background: LightGoldenRodYellow; margin: 4px; border: 1px solid khaki"> (rmswi#100000073375)</span></p></div>
        </text>
        <identifier>
          <use value="official"/>
          <system value="https://spor.ema.europa.eu/pmswi"/>
          <value value="EU/1/98/071/004"/>
        </identifier>
        <status value="active"/>
        <manufacturedDoseForm>
          <coding>
            <system value="https://spor.ema.europa.eu/rmswi/"/>
            <code value="100000073375"/>
            <display value="Capsule, hard"/>
          </coding>
        </manufacturedDoseForm>
        <unitOfPresentation>
          <coding>
            <system value="https://spor.ema.europa.eu/rmswi"/>
            <code value="100000073375"/>
            <display value="Capsule, hard"/>
          </coding>
        </unitOfPresentation>
      </ManufacturedItemDefinition>
    </resource>
  </entry>
</Bundle>