{
  "resourceType" : "Bundle",
  "id" : "FK37812",
  "meta" : {
    "profile" : ["http://hl7.org/fhir/uv/emedicinal-product-info/StructureDefinition/Bundle-uv-epi"]
  },
  "language" : "da",
  "identifier" : {
    "system" : "https://www.indlaegssedler.dk/Indlaegssedler/Indlaegsseddel/",
    "value" : "37812"
  },
  "type" : "document",
  "timestamp" : "2021-09-13T01:01:01Z",
  "entry" : [{
    "fullUrl" : "https://gravitatehealth.eu/fhir/nordic-epi/Composition/37812",
    "resource" : {
      "resourceType" : "Composition",
      "id" : "37812",
      "meta" : {
        "profile" : ["http://hl7.org/fhir/uv/emedicinal-product-info/StructureDefinition/Composition-uv-epi",
        "https://gravitatehealth.eu/fhir/nordic-epi-ig/StructureDefinition/Nordic-ePI-Composition-PIL"]
      },
      "language" : "da",
      "contained" : [{
        "resourceType" : "Binary",
        "id" : "179697",
        "contentType" : "image/png",
        "data" : ""
      },
      {
        "resourceType" : "Binary",
        "id" : "179698",
        "contentType" : "image/png",
        "data" : ""
      },
      {
        "resourceType" : "Binary",
        "id" : "179699",
        "contentType" : "image/png",
        "data" : ""
      },
      {
        "resourceType" : "Binary",
        "id" : "178239",
        "contentType" : "image/jpg",
        "data" : ""
      },
      {
        "resourceType" : "Binary",
        "id" : "178240",
        "contentType" : "image/jpg",
        "data" : ""
      },
      {
        "resourceType" : "Binary",
        "id" : "178241",
        "contentType" : "image/jpg",
        "data" : ""
      },
      {
        "resourceType" : "Binary",
        "id" : "178242",
        "contentType" : "image/jpg",
        "data" : ""
      },
      {
        "resourceType" : "Binary",
        "id" : "179700",
        "contentType" : "image/png",
        "data" : ""
      }],
      "identifier" : [{
        "system" : "https://www.indlaegssedler.dk/Indlaegssedler/Indlaegsseddel/",
        "value" : "37812"
      }],
      "status" : "final",
      "type" : {
        "coding" : [{
          "system" : "https://spor.ema.europa.eu/v1/lists/100000155531/terms/",
          "code" : "100000155538"
        }]
      },
      "subject" : [{
        "reference" : "MedicinalProductDefinition/IBD-MPD-4"
      }],
      "date" : "2021-09-13",
      "author" : [{
        "identifier" : {
          "system" : "https://medicin.dk",
          "value" : "medicin.dk"
        }
      }],
      "title" : "Humira 40mg/0,4 ml injektionsvske, opl. i sprjte",
      "section" : [{
        "title" : "Indlgsseddel: Information til patienten",
        "code" : {
          "coding" : [{
            "system" : "https://spor.ema.europa.eu/v1/lists/200000029659/terms/",
            "code" : "200000029894"
          }]
        },
        "text" : {
          "status" : "additional",
          "div" : "<div xmlns=\"http://www.w3.org/1999/xhtml\">\n                     <a name=\"Section0\"/>\n                     <h2>  Indlgsseddel: Information til brugeren  </h2>\n                     <h3>Humira 40 mg injektionsvske, oplsning i fyldt injektionssprjte </h3>\n                     <div class=\"paragraph\">adalimumab</div>\n                     <h3>  Ls hele denne indlgsseddel grundigt, inden du begynder at bruge dette lgemiddel, da den indeholder vigtige oplysninger.  </h3>\n                     <ul>\n                        <li>Gem indlgssedlen. Du kan f brug for at lse den igen. </li>\n                        <li>Din lge vil ogs udlevere et <b>patientkort</b>, der indeholder vigtige sikkerhedsinformationer, som du skal vre opmrksom p fr og under din behandling med Humira. Opbevar <b>patientkortet </b>p dig. </li>\n                        <li>Sprg lgen eller  apotekspersonalet , hvis der er mere, du vil vide. </li>\n                        <li>Lgen har ordineret Humira til dig personligt. Lad derfor vre med at give medicinen til andre.<br/>Det kan vre skadeligt for andre, selvom de har samme symptomer, som du har. </li>\n                        <li>Kontakt lgen, apotekspersonalet eller sundhedspersonalet, hvis du fr bivirkninger, herunder bivirkninger, som ikke er nvnt i denne indlgsseddel. Se <a href=\"#Section4\" title=\"Anchor link til afsnit - punkt 4\">punkt 4</a>. </li>\n                     </ul>\n                     <div class=\"paragraph\">Se den nyeste indlgsseddel p<a href=\"https://www.indlaegsseddel.dk\" title=\"null\">www.indlaegsseddel.dk</a>\n                     </div>\n                     <h3>  Oversigt over indlgssedlen:  </h3>\n                     <ol>\n                        <li>Virkning og anvendelse </li>\n                        <li>Det skal du vide, fr du begynder at tage Humira </li>\n                        <li>Sdan skal du tage Humira </li>\n                        <li>Bivirkninger </li>\n                        <li>Opbevaring </li>\n                        <li>Pakningsstrrelser og yderligere oplysninger </li>\n                        <li>Injektion af Humira </li>\n                     </ol>\n                  </div>"
        },
        "section" : [{
          "title" : "1. Virkning og anvendelse",
          "code" : {
            "coding" : [{
              "system" : "https://spor.ema.europa.eu/v1/lists/200000029659/terms/",
              "code" : "200000029895"
            }]
          },
          "text" : {
            "status" : "additional",
            "div" : "<div xmlns=\"http://www.w3.org/1999/xhtml\">\n                        <a name=\"Section1\"/>\n                        <div>\u00a0</div>\n                        <h2>1. Virkning og anvendelse</h2>\n                        <div class=\"paragraph\">Humira indeholder det aktive stof adalimumab. </div>\n                        <div class=\"paragraph\">\u00a0</div>\n                        <div class=\"paragraph\">Humira bruges til at behandle </div>\n                        <ul>\n                           <li>Reumatoid artrit </li>\n                           <li>Polyartikulr juvenil idiopatisk artrit </li>\n                           <li>Entesopatirelateret artrit </li>\n                           <li>Ankyloserende spondylitis </li>\n                           <li>Aksial spondyloartritis uden radiografiske tegn p ankyloserende spondylitis </li>\n                           <li>Psoriasisartrit </li>\n                           <li>Plaque-psoriasis </li>\n                           <li>Hidrosadenitis suppurativa </li>\n                           <li>Crohns sygdom </li>\n                           <li>Colitis ulcerosa </li>\n                           <li>Ikke-infektis uveitis </li>\n                        </ul>\n                        <div class=\"paragraph\">Det aktive stof i Humira, adalimumab, er et humant monoklonalt antistof. Monoklonale antistoffer er proteiner, som binder til et bestemt ml.</div>\n                        <div class=\"paragraph\">\n                           <br/>Mlet for adalimumab er et protein kaldet tumornekrosefaktor (TNF) som er involveret i immun (forsvars) systemet og er til stede i gede mngder i de inflammatoriske sygdomme nvnt ovenfor.Ved at binde sig til TNF reducerer Humira den inflammatoriske proces i disse sygdomme.</div>\n                        <div class=\"paragraph\">\u00a0</div>\n                        <div class=\"paragraph\">\n                           <b>Reumatoid artrit </b>\n                        </div>\n                        <div class=\"paragraph\">Reumatoid artrit er en betndelsessygdom i leddene.</div>\n                        <div class=\"paragraph\">\n                           <br/>Humira bruges til at behandle moderat til alvorlig reumatoid artrit hos voksne. Du vil evt. frst f andre sygdomsmodificerende antireumatiske lgemidler, ssom methotrexat. Hvis du ikke responderer tilstrkkeligt p disse lgemidler, kan du f Humira.</div>\n                        <div class=\"paragraph\">\n                           <br/>Humira kan ogs anvendes til behandling af alvorlig aktiv og progressiv reumatoid artrit, der ikke tidligere er behandlet med methotrexat.</div>\n                        <div class=\"paragraph\">\n                           <br/>Humira kan nedstte hastigheden for delggelse i leddene forrsaget af den inflammatoriske sygdom og kan hjlpe dem til at kunne bevges mere frit.</div>\n                        <div class=\"paragraph\">\n                           <br/>Din lge vil beslutte, om Humira skal anvendes sammen med methotrexat eller alene.</div>\n                        <div class=\"paragraph\">\u00a0</div>\n                        <div class=\"paragraph\">\n                           <b>Polyartikulr juvenil idiopatisk artrit </b>\n                        </div>\n                        <div class=\"paragraph\">\u00a0</div>\n                        <div class=\"paragraph\">Polyartikulr juvenil idiopatisk artrit er en inflammatorisk sygdom i leddene.</div>\n                        <div class=\"paragraph\">\n                           <br/>Humira bruges til at behandle polyartikulr juvenil idiopatisk artrit hos patienter fra 2 r. Du skal frst behandles med anden sygdomsdmpende medicin ssom methotrexat. Hvis du ikke reagerer tilstrkkeligt godt p disse lgemidler, vil du f Humira.</div>\n                        <div class=\"paragraph\">\n                           <br/>Din lge vil beslutte, om Humira skal anvendes sammen med methotrexat eller alene.</div>\n                        <div class=\"paragraph\">\u00a0</div>\n                        <div class=\"paragraph\">\n                           <b>Entesopatirelateret artrit </b>\n                        </div>\n                        <div class=\"paragraph\">\u00a0</div>\n                        <div class=\"paragraph\">Entesopatirelateret artrit er en inflammatorisk sygdom i leddene og de steder, hvor senerne hfter p knoglen.</div>\n                        <div class=\"paragraph\">\n                           <br/>Humira bruges til at behandle entesopatirelateret artrit hos patienter fra 6 r. Du skal frst behandles med anden sygdomsdmpende medicin ssom methotrexat. Hvis du ikke reagerer tilstrkkeligt godt p disse lgemidler, vil du f Humira.</div>\n                        <div class=\"paragraph\">\u00a0</div>\n                        <div class=\"paragraph\">\n                           <b>Ankyloserende spondylitis og aksial spondyloartritis uden radiografiske tegn p ankyloserende spondylitis </b>\n                        </div>\n                        <div class=\"paragraph\">\u00a0</div>\n                        <div class=\"paragraph\">Ankyloserende spondylitis og aksial spondyloartritis uden radiografiske tegn p ankyloserende spondylitis er en inflammatorisk (betndelseslignende) sygdom i rygsjlen.</div>\n                        <div class=\"paragraph\">\n                           <br/>Humira bruges til at behandle alvorlig ankyloserende spondylitis og aksial spondyloartritis uden radiografiske tegn p ankyloserende spondylitis hos voksne. Du vil frst f anden medicin. Hvis du ikke reagerer godt nok p denne medicin, kan du f Humira.</div>\n                        <div class=\"paragraph\">\u00a0</div>\n                        <div class=\"paragraph\">\n                           <b>Psoriasisartrit </b>\n                        </div>\n                        <div class=\"paragraph\">Psoriasisartrit er en betndelsessygdom i leddene, som er forbundet med psoriasis.</div>\n                        <div class=\"paragraph\">\n                           <br/>Humira bruges til at behandle psoriasisartrit hos voksne. Humira kan nedstte hastigheden for delggelse i leddene forrsaget af sygdommen og kan hjlpe dem til at bevge sig mere frit. Du vil frst f anden medicin. Hvis du ikke reagerer godt nok p denne medicin, kan du f Humira.</div>\n                        <div class=\"paragraph\">\u00a0</div>\n                        <div class=\"paragraph\">\n                           <b>Plaque-psoriasis hos voksne og brn </b>\n                        </div>\n                        <div class=\"paragraph\">\u00a0</div>\n                        <div class=\"paragraph\">Plaque-psoriasis er en hudlidelse, som forrsager rde, skllende, skorpede pletter p huden dkket med slvfarvede skl. Plaque-psoriasis kan ogs pvirke neglene. Det fr dem til at smuldre, blive fortykket og lfte fra neglelejet, hvilket kan vre meget smertefuldt.</div>\n                        <div class=\"paragraph\">\n                           <br/>Humira bruges til at behandle</div>\n                        <ul>\n                           <li>moderat til alvorlig kronisk plaque-psoriasis hos voksne og </li>\n                           <li>alvorlig kronisk plaque-psoriasis hos brn og unge i alderen 4 til 17 r, hos hvem lokal behandling og lysbehandlinger enten ikke har virket godt nok eller ikke er egnede. </li>\n                        </ul>\n                        <div class=\"paragraph\">\n                           <b>Hidrosadenitis suppurativa </b>\n                        </div>\n                        <div class=\"paragraph\">\u00a0</div>\n                        <div class=\"paragraph\">Hidrosadenitis suppurativa (kaldes somme tider svedkirtelbetndelse) er en kronisk, ofte smertefuld betndelseslignende (inflammatorisk) hudsygdom. Symptomerne kan vre mme knuder i huden (noduli) og abscesser (bylder), som kan udtmme pus. Sygdommen pvirker oftest bestemte omrder af huden, ssom under brystet, i armhulerne, p inderlrerne, i lyskeomrdet og p balderne. Der kan ogs forekomme ar i de berrte omrder.</div>\n                        <div class=\"paragraph\">\n                           <br/>Humira bruges til at behandle</div>\n                        <ul>\n                           <li>moderat til alvorlig hidrosadenitis suppurativa hos voksne og </li>\n                           <li>moderat til alvorlig hidrosadenitis suppurativa hos unge fra 12 til 17 r. </li>\n                        </ul>\n                        <div class=\"paragraph\">Humira kan nedstte antallet af knuder og bylder og lindre den smerte, som ofte er forbundet med sygdommen. Du kan blive tilbudt anden medicin frst. Hvis du ikke har tilstrkkelig effekt af den medicin, vil du blive tilbudt Humira.</div>\n                        <div class=\"paragraph\">\u00a0</div>\n                        <div class=\"paragraph\">\n                           <b>Crohns sygdom </b>\n                        </div>\n                        <div class=\"paragraph\">\u00a0</div>\n                        <div class=\"paragraph\">Crohns sygdom er en inflammatorisk sygdom i mave-tarm-kanalen. Humira bruges til at behandle</div>\n                        <ul>\n                           <li>moderat til alvorlig Crohns sygdom hos voksne og </li>\n                           <li>moderat til alvorlig Crohns sygdom hos brn i alderen 6-17 r. </li>\n                        </ul>\n                        <div class=\"paragraph\">Du vil du frst f anden medicin. Hvis du ikke har tilstrkkelig effekt af den medicin, vil du blive tilbudt Humira.</div>\n                        <div class=\"paragraph\">\u00a0</div>\n                        <div class=\"paragraph\">\n                           <b>Colitis ulcerosa </b>\n                        </div>\n                        <div class=\"paragraph\">\u00a0</div>\n                        <div class=\"paragraph\">Colitis ulcerosa er en inflammatorisk (betndelseslignende) sygdom i tyktarmen</div>\n                        <div class=\"paragraph\">\n                           <br/>Humira bruges til at behandle </div>\n                        <ul>\n                           <li>moderat til alvorlig colitis ulcerosa hos voksne. </li>\n                           <li>moderat til alvorlig colitis ulcerosa hos brn og unge i alderen 6 til 17 r </li>\n                        </ul>\n                        <div class=\"paragraph\">Du vil frst f anden medicin. Hvis du ikke har tilstrkkelig virkning af denne medicin, kan du f Humira.</div>\n                        <div class=\"paragraph\">\u00a0</div>\n                        <div class=\"paragraph\">\n                           <b>Ikke-infektis uveitis </b>\n                        </div>\n                        <div class=\"paragraph\">\u00a0</div>\n                        <div class=\"paragraph\">Ikke-infektis uveitis er en betndelseslignende (inflammatorisk) sygdom, som pvirker bestemte dele af jet.</div>\n                        <div class=\"paragraph\">\n                           <br/>Humira bruges til at behandle</div>\n                        <ul>\n                           <li>voksne med ikke-infektis uveitis (regnbuehindebetndelse), som pvirker den bagerste del af jet </li>\n                           <li>brn fra 2 r med kronisk ikke-infektis sygdom, som pvirker forreste del af jet </li>\n                        </ul>\n                        <div class=\"paragraph\">\u00a0</div>\n                        <div class=\"paragraph\">Inflammationen kan fre til nedsat syn og/eller fluer i jet (svrm af uklarheder i jet, som bevger sig i synsfeltet). Humira virker ved at reducere denne inflammation.</div>\n                        <div class=\"paragraph\">\n                           <br/>Du vil du frst f anden medicin. Hvis du ikke har tilstrkkelig effekt af den medicin, vil du blive tilbudt Humira.</div>\n                     </div>"
          }
        },
        {
          "title" : "2. Det skal du vide, fr du begynder at tage Humira",
          "code" : {
            "coding" : [{
              "system" : "https://spor.ema.europa.eu/v1/lists/200000029659/terms/",
              "code" : "200000029896"
            }]
          },
          "text" : {
            "status" : "additional",
            "div" : "<div xmlns=\"http://www.w3.org/1999/xhtml\">\n                        <a name=\"Section2\"/>\n                        <div>\u00a0</div>\n                        <h2>2. Det skal du vide, fr du begynder at tage Humira</h2>\n                        <h3>  Tag ikke Humira  </h3>\n                        <ul>\n                           <li>Hvis du er allergisk over for adalimumab eller et af de vrige indholdsstoffer (angivet i <a href=\"#Section6\" title=\"Anchor link til afsnit - punkt 6\">punkt 6</a>). </li>\n                           <li>Hvis du har aktiv tuberkulose eller andre alvorlige infektioner (se  Advarsler og forsigtighedsregler). Det er vigtigt, at du informerer lgen, hvis du har symptomer p infektioner, f.eks. feber, sr, trthedsfornemmelse, tandproblemer. </li>\n                           <li>Hvis du lider af moderat eller alvorlig hjerteinsufficiens. Det er vigtigt at informere lgen, hvis du har eller har haft en alvorlig hjertesygdom (se  Advarsler og forsigtighedsregler). </li>\n                        </ul>\n                        <h3>  Advarsler og forsigtighedsregler  </h3>\n                        <div class=\"paragraph\">Kontakt lgen eller apotekspersonalet, fr du tager Humira.</div>\n                        <div class=\"paragraph\">\u00a0</div>\n                        <div class=\"paragraph\">\n                           <b>Allergiske reaktioner</b>\n                        </div>\n                        <ul>\n                           <li>Hvis du fr allergiske reaktioner med symptomer som trykken i brystet, hvsende vejrtrkning, svimmelhed, hvelser eller udslt, s undlad at injicere mere Humira, og kontakt straks lgen, da disse reaktioner i sjldne tilflde kan vre livstruende. </li>\n                        </ul>\n                        <div class=\"paragraph\">\n                           <b>Infektioner</b>\n                        </div>\n                        <ul>\n                           <li>Hvis du har en infektion, herunder langvarig infektion eller en infektion i en bestemt del af kroppen (f.eks. bensr), skal du kontakte din lge, fr du begynder at bruge Humira. Kontakt lgen, hvis du er i tvivl. </li>\n                           <li>Infektioner kan opst lettere under behandling med Humira. Risikoen kan stige, hvis din lungefunktion er svkket. Disse infektioner kan vre alvorlige og inkluderer <ul>\n                                 <li>tuberkulose </li>\n                                 <li>infektioner forrsaget af virus, svampe, parasitter eller bakterier </li>\n                                 <li>alvorlig infektion i blodet (sepsis) </li>\n                              </ul>\n                           </li>\n                        </ul>\n                        <div class=\"paragraph\">I sjldne tilflde kan kan disse infektioner vre livstruende. Det er vigtigt at informere lgen, hvis du fr symptomer som feber, sr, trthedsfornemmelse eller tandproblemer. Din lge kan bededig om midlertidigt at stoppe med at tage Humira.</div>\n                        <div class=\"paragraph\">\u00a0</div>\n                        <ul>\n                           <li>Fortl lgen, hvis du har fast bopl eller rejser i omrder, hvor svampeinfektioner (som f.eks. histoplasmose, kokcidioidomykose eller blastomykose) er meget almindelige. </li>\n                           <li>Fortl lgen, hvis du har haft gentagne infektioner eller andre tilflde, der forger risikoen for infektioner. </li>\n                           <li>Hvis du er over 65 r, kan du vre mere modtagelig for infektioner, mens du tager Humira. Du og din lge br vre srligt opmrksomme p tegn p infektion, mens du er i behandling med Humira. Det er vigtigt, at du fortller lgen, hvis du fr symptomer p infektion ssom feber, sr, trthedsfornemmelse eller problemer med tnderne. </li>\n                        </ul>\n                        <div class=\"paragraph\">\n                           <b>Tuberkulose</b>\n                        </div>\n                        <ul>\n                           <li>Det er meget vigtigt at informere lgen, hvis du nogensinde selv har haft tuberkulose, eller hvis du har vret i tt kontakt med nogen, som havde tuberkulose. Hvis du har aktiv tuberkulose, m du ikke tage Humira. <ul>\n                                 <li>Eftersom der har vret rapporteret tilflde af tuberkulose hos patienter i behandling med Humira, vil lgen undersge dig for tegn og symptomer p tuberkulose, fr behandling med Humira pbegyndes. Dette vil omfatte en omhyggelig gennemgang af din sygdomshistorie og relevante screeningstest (f. eks. rntgenundersgelse af lunger og en tuberkulintest). Disse undersgelser og resultaterne heraf br registreres p dit <b>patientkort</b>. </li>\n                                 <li>Tuberkulose kan udvikles under behandlingen, ogs selv om du har fet behandling for at forebygge tuberkulose </li>\n                                 <li>Hvis der viser sig symptomer p tuberkulose (f.eks hoste som ikke forsvinder vgttab, mangel p energi, let feber) eller anden form for infektion under eller efter behandlingen, br lgen straks informeres. </li>\n                              </ul>\n                           </li>\n                        </ul>\n                        <div class=\"paragraph\">\n                           <b>Hepatitis B</b>\n                        </div>\n                        <ul>\n                           <li>Fortl lgen, hvis du er brer af hepatitis B-virus (HBV), hvis du har aktiv HBV, eller hvis du tror, du kan have risiko for at f HBV. <ul>\n                                 <li>Lgen vil teste dig for HBV. Hos brere af HBV, kan Humira forrsage at virus bliver aktiv igen. </li>\n                                 <li>I sjldne tilflde, specielt hvis du tager anden medicin, der undertrykker immun- systemet, kan reaktivering af HBV blive livstruende. </li>\n                              </ul>\n                           </li>\n                        </ul>\n                        <div class=\"paragraph\">\n                           <b>Kirurgi og tandlgebehandling</b>\n                        </div>\n                        <ul>\n                           <li>Hvis du skal opereres eller have tandbehandling, br du informere din lge om, at du tager Humira. Din lge kan anbefale midlertidig afbrydelse af behandlingen. </li>\n                        </ul>\n                        <div class=\"paragraph\">\n                           <b>Demyeliserende sygdom</b>\n                        </div>\n                        <ul>\n                           <li>Hvis du har eller udvikler demyeliniserende sygdom (en sygdom der pvirker det isolerende lag omkring nerverne ssom dissemineret sklerose) vil din lge afgre om du skal have eller fortstte med at f Humira. Fortl straks din lge, hvis du oplever ndringer i dit syn, svaghed i arme eller ben eller flseslshed eller en snurrende fornemmelse et sted i kroppen. </li>\n                        </ul>\n                        <div class=\"paragraph\">\n                           <b>Vaccinationer</b>\n                        </div>\n                        <ul>\n                           <li>Visse vacciner kan forrsage infektioner og br ikke gives under Humira-behandling. <ul>\n                                 <li>Tal med lgen, fr du fr nogen form for vaccine. </li>\n                                 <li>Det anbefales, at brn om muligt fr alle planlagte vaccinationer for deres alder, inden de begynder behandling med Humira. </li>\n                                 <li>Hvis du har fet Humira, mens du var gravid, kan dit spdbarn have en hjere risiko for at f en sdan infektion i op til ca. fem mneder efter din sidste Humira-dosis under graviditeten. Det er vigtigt, at du fortller barnets lge og andre sundhedspersoner, at du fik Humira under graviditeten, s de kan beslutte, hvornr dit spdbarn br vaccineres. </li>\n                              </ul>\n                           </li>\n                        </ul>\n                        <div class=\"paragraph\">\n                           <b>Hjerteinsufficiens</b>\n                        </div>\n                        <ul>\n                           <li>Hvis du har lettere hjerteinsufficiens og behandles med Humira, skal status for din hjerteinsufficiens flges nje af din lge. Det er vigtigt at informere lgen, hvis du har eller har haft en alvorlig hjertesygdom. Hvis du udvikler nye eller fr forvrrede symptomer p hjerteinsufficiens (f. eks. stakndethed eller hvede fdder), skal du kontakte din lge jeblikkeligt. Din lge vil tage stilling til, om du skal have Humira. </li>\n                        </ul>\n                        <div class=\"paragraph\">\n                           <b>Feber, bl mrker, bldning eller bleghed</b>\n                        </div>\n                        <ul>\n                           <li>Hos nogle patienter vil kroppen ikke producere tilstrkkeligt af de blodlegemer, som bekmper infektioner eller stopper bldninger. Din lge kan eventuelt beslutte at afbryde behandlingen. Hvis du fr feber, som ikke vil forsvinde, let fr bl mrker eller blder meget let eller ser meget bleg ud, skal du omgende henvende dig til din lge. </li>\n                        </ul>\n                        <div class=\"paragraph\">\n                           <b>Krft</b>\n                        </div>\n                        <ul>\n                           <li>Der er set meget sjldne tilflde af visse krfttyper hos patienter, som tager Humira eller andre TNF-hmmere. <ul>\n                                 <li>Patienter med mere alvorlig reumatoid artrit, som har haft sygdommen i lang tid, kan have get risiko i forhold til gennemsnittet for at f lymfomer (krft som pvirker lymfesystemt) og leukmi (krft som pvirker blod og knoglemarv). </li>\n                                 <li>Nr du tager Humira, kan risikoen for at f et lymfom, leukmi eller andre former for krft ges. I sjldne tilflde er der set en ikke almindelig og alvorlig type af lymfom hos patienter, som tog Humira. Nogle af disse patienter blev ogs behandlet med azathioprin eller 6-mercaptopurin. </li>\n                                 <li>Fortl din lge, hvis du fr azathioprin eller 6-mercaptopurin sammen med Humira. </li>\n                                 <li>Tilflde af ikke-melanom hudkrft er set hos patienter, der tager Humira. </li>\n                                 <li>Hvis der kommer nye hudlsioner under eller efter behandlingen, skal du fortlle det til din lge. </li>\n                              </ul>\n                           </li>\n                           <li>Der har vret tilflde af krft, der er forskellig fra lymfom hos patienter med en specifik lungesygdom kaldet kronisk obstruktiv lungesygdom (KOL), der var i behandling med en anden TNF-hmmer. Hvis du har KOL, eller ryger meget, br du diskutere med din lge, om behandling med en TNF-hmmer er passende for dig. </li>\n                        </ul>\n                        <div class=\"paragraph\">\n                           <b>Autoimmune sygdomme</b>\n                        </div>\n                        <ul>\n                           <li>I sjldne tilflde kan behandling med Humira resultere i lupus-lignende syndrom. Fortl din lge hvis du fr symptomer ssom vedvarende uforklarligt udslt, feber, ledsmerter eller trthed </li>\n                        </ul>\n                        <h3>  Brn og unge  </h3>\n                        <ul>\n                           <li>Vaccinationer: hvis det er muligt, skal dit barn fres ajour med alle vaccinationer, fr behandling med Humira startes. </li>\n                        </ul>\n                        <h3>  Brug af anden medicin sammen med Humira  </h3>\n                        <div class=\"paragraph\">Fortl altid lgen eller apotekspersonalet, hvis du bruger anden medicin, for nylig har brugt anden medicin eller planlgger at bruge anden medicin.</div>\n                        <div class=\"paragraph\">\n                           <br/>P grund af get risiko for alvorlig infektion, br du ikke tage Humira sammen med medicin, som indeholder flgende aktive stoffer:</div>\n                        <ul>\n                           <li>anakinra </li>\n                           <li>abatacept </li>\n                        </ul>\n                        <div class=\"paragraph\">Humira kan anvendes sammen med</div>\n                        <ul>\n                           <li>methotrexat </li>\n                           <li>visse sygdomsmodificerende antireumatiske lgemidler (f.eks. sulfasalazin, hydroxychloroquin, leflunomid og guldprparater til injektion) </li>\n                           <li>steroider eller smertemedicin, herunder non-steroide anti-inflammatoriske lgemidler (NSAIDs). </li>\n                        </ul>\n                        <div class=\"paragraph\">Hvis du har sprgsml, skal du tale med din lge.</div>\n                        <h3>  Graviditet og amning  </h3>\n                        <ul>\n                           <li>Du br overveje brugen af passende prvention for at forhindre graviditet og fortstte brugen mindst 5 mneder efter den sidste behandling med Humira. </li>\n                           <li>Hvis du er gravid, har mistanke, om at du er gravid, eller planlgger at blive gravid, skal du sprge din lge til rds, fr du tager dette lgemiddel. </li>\n                           <li>Humira br kun anvendes under graviditet, hvis det er tydeligvis ndvendigt. </li>\n                           <li>Der var i flge et graviditetsstudie ikke hjere risiko for misdannelser, nr moderen havde fet Humira under graviditeten, ved sammenligning med mdre med samme sygdom, som ikke havde fet Humira. </li>\n                           <li>Humira kan anvendes under amning </li>\n                           <li>Hvis du har fet Humira, mens du var gravid, kan dit spdbarn have en hjere risiko for at f en infektion. </li>\n                           <li>Det er vigtigt, at du fortller barnets lge og andre sundhedspersoner, at du fik Humira under graviditeten, fr dit barn fr nogen vaccinationer. For mere information om vacciner, se afsnittet vedrrende Advarsler og forsigtighedsregler. </li>\n                        </ul>\n                        <h3>  Trafik-og arbejdssikkerhed  </h3>\n                        <div class=\"paragraph\">Humira kan i lettere grad pvirke din evne til at fre motorkretj, cykle eller betjene maskiner. Du kan f synsforstyrrelser og en fornemmelse af at rummet drejer rundt efter at have taget Humira.</div>\n                     </div>"
          }
        },
        {
          "title" : "3. Sdan skal du tage Humira",
          "code" : {
            "coding" : [{
              "system" : "https://spor.ema.europa.eu/v1/lists/200000029659/terms/",
              "code" : "200000029905"
            }]
          },
          "text" : {
            "status" : "additional",
            "div" : "<div xmlns=\"http://www.w3.org/1999/xhtml\">\n                        <a name=\"Section3\"/>\n                        <div>\u00a0</div>\n                        <h2>3. Sdan skal du tage Humira</h2>\n                        <div class=\"paragraph\">Tag altid Humira njagtigt efter lgens eller apotekspersonalets anvisning. Er du i tvivl, s sprg lgen eller apotekspersonalet.</div>\n                        <div class=\"paragraph\">\u00a0</div>\n                        <div class=\"paragraph\">Den anbefalede Humira-dosis for hvert af de godkendte anvendelsesomrder er vist nedenfor i tabellen. Din lge kan have udskrevet Humira i en anden styrke, hvis du har behov for en anden dosis.</div>\n                        <div class=\"paragraph\">\u00a0</div>\n                        <table border=\"1\" cellpadding=\"4\" cellspacing=\"0\" width=\"100%\" style=\"border-collapse:collapse;\">\n                           <colgroup/>\n                           <tr>\n                              <td colspan=\"3\" valign=\"top\" align=\"left\">\n                                 <div class=\"paragraph\">\n                                    <b>Reumatoid artrit, psoriasisartrit, ankyloserende spondylitis eller aksial spondyloartritis uden radiografiske tegn p ankyloserende spondylitis</b>\n                                 </div>\n                              </td>\n                           </tr>\n                           <tr>\n                              <td valign=\"top\" align=\"left\">\n                                 <div class=\"paragraph\">\n                                    <b>Alder eller vgt</b>\n                                 </div>\n                              </td>\n                              <td valign=\"top\" align=\"left\">\n                                 <div class=\"paragraph\">\n                                    <b>Hvor meget og hvor tit skal medicinen tages?</b>\n                                 </div>\n                              </td>\n                              <td valign=\"top\" align=\"left\">\n                                 <div class=\"paragraph\">\n                                    <b>Bemrk</b>\n                                 </div>\n                              </td>\n                           </tr>\n                           <tr>\n                              <td valign=\"top\" align=\"left\">\n                                 <div class=\"paragraph\">Voksne</div>\n                              </td>\n                              <td valign=\"top\" align=\"left\">\n                                 <div class=\"paragraph\">40 mg hver anden uge</div>\n                              </td>\n                              <td valign=\"top\" align=\"left\">\n                                 <div class=\"paragraph\">Hvis du har reumatoid artrit, fortsttes med methotrexat under behandling med Humira. Hvis din lge ikke mener, at behandling med methotrexat er hensigtsmssig, kan Humira anvendes alene</div>\n                                 <div class=\"paragraph\">\u00a0</div>\n                                 <div class=\"paragraph\">Hvis du har reumatoid artrit og ikke fr methotrexat i kombination med din Humira- behandling, kan lgen vlge at ordinere Humira 40 mg hver</div>\n                                 <div class=\"paragraph\">uge eller 80 mg hver anden uge.</div>\n                              </td>\n                           </tr>\n                        </table>\n                        <div class=\"paragraph\">\u00a0</div>\n                        <table border=\"1\" cellpadding=\"4\" cellspacing=\"0\" width=\"100%\" style=\"border-collapse:collapse;\">\n                           <colgroup/>\n                           <tr>\n                              <td colspan=\"3\" valign=\"top\" align=\"left\">\n                                 <div class=\"paragraph\">\n                                    <b>Polyartikulr juvenil idiopatisk artrit</b>\n                                 </div>\n                              </td>\n                           </tr>\n                           <tr>\n                              <td valign=\"top\" align=\"left\">\n                                 <div class=\"paragraph\">\n                                    <b>Alder eller vgt</b>\n                                 </div>\n                              </td>\n                              <td valign=\"top\" align=\"left\">\n                                 <div class=\"paragraph\">\n                                    <b>Hvor meget og hvor tit skal medicinen tages?</b>\n                                 </div>\n                              </td>\n                              <td valign=\"top\" align=\"left\">\n                                 <div class=\"paragraph\">\n                                    <b>Bemrk</b>\n                                 </div>\n                              </td>\n                           </tr>\n                           <tr>\n                              <td valign=\"top\" align=\"left\">\n                                 <div class=\"paragraph\">Brn, unge og voksne fra 2 r der vejer 30 kg eller mere</div>\n                              </td>\n                              <td valign=\"top\" align=\"left\">\n                                 <div class=\"paragraph\">40 mg hver anden uge</div>\n                              </td>\n                              <td valign=\"top\" align=\"left\">\n                                 <div class=\"paragraph\">Ikke relevant</div>\n                              </td>\n                           </tr>\n                           <tr>\n                              <td valign=\"top\" align=\"left\">\n                                 <div class=\"paragraph\">Brn og unge fra 2 r der vejer fra 10 kg til mindre end 30 kg</div>\n                              </td>\n                              <td valign=\"top\" align=\"left\">\n                                 <div class=\"paragraph\">20 mg hver anden uge</div>\n                              </td>\n                              <td valign=\"top\" align=\"left\">\n                                 <div class=\"paragraph\">Ikke relevant</div>\n                              </td>\n                           </tr>\n                        </table>\n                        <div class=\"paragraph\">\u00a0</div>\n                        <table border=\"1\" cellpadding=\"4\" cellspacing=\"0\" width=\"50%\" style=\"border-collapse:collapse;\">\n                           <colgroup/>\n                           <tr>\n                              <td colspan=\"3\" valign=\"top\" align=\"left\">\n                                 <div class=\"paragraph\">\n                                    <b>Entesopatirelateret artrit</b>\n                                 </div>\n                              </td>\n                           </tr>\n                           <tr>\n                              <td valign=\"top\" align=\"left\">\n                                 <div class=\"paragraph\">\n                                    <b>Alder eller vgt</b>\n                                 </div>\n                              </td>\n                              <td valign=\"top\" align=\"left\">\n                                 <div class=\"paragraph\">\n                                    <b>Hvor meget og hvor tit skal medicinen tages?</b>\n                                 </div>\n                              </td>\n                              <td valign=\"top\" align=\"left\">\n                                 <div class=\"paragraph\">\n                                    <b>Bemrk</b>\n                                 </div>\n                              </td>\n                           </tr>\n                           <tr>\n                              <td valign=\"top\" align=\"left\">\n                                 <div class=\"paragraph\">Brn, unge og voksne fra 6 r</div>\n                                 <div class=\"paragraph\">der vejer 30 kg eller mere</div>\n                              </td>\n                              <td valign=\"top\" align=\"left\">\n                                 <div class=\"paragraph\">40 mg hver anden uge</div>\n                              </td>\n                              <td valign=\"top\" align=\"left\">\n                                 <div class=\"paragraph\">Ikke relevant</div>\n                              </td>\n                           </tr>\n                           <tr>\n                              <td valign=\"top\" align=\"left\">\n                                 <div class=\"paragraph\">Brn og unge fra 6 r, der vejer fra 15 kg og mindre end 30 kg</div>\n                              </td>\n                              <td valign=\"top\" align=\"left\">\n                                 <div class=\"paragraph\">20 mg hver anden uge</div>\n                              </td>\n                              <td valign=\"top\" align=\"left\">\n                                 <div class=\"paragraph\">Ikke relevant</div>\n                              </td>\n                           </tr>\n                        </table>\n                        <div class=\"paragraph\">\u00a0</div>\n                        <table border=\"1\" cellpadding=\"4\" cellspacing=\"0\" width=\"100%\" style=\"border-collapse:collapse;\">\n                           <colgroup/>\n                           <tr>\n                              <td colspan=\"3\" valign=\"top\" align=\"left\">\n                                 <div class=\"paragraph\">\n                                    <b>Plaque-psoriasis</b>\n                                 </div>\n                              </td>\n                           </tr>\n                           <tr>\n                              <td style=\"width:83%;\" valign=\"top\" align=\"left\">\n                                 <div class=\"paragraph\">\n                                    <b>Alder eller vgt</b>\n                                 </div>\n                              </td>\n                              <td valign=\"top\" align=\"left\">\n                                 <div class=\"paragraph\">\n                                    <b>Hvor meget og hvor tit skal medicinen tages?</b>\n                                 </div>\n                              </td>\n                              <td valign=\"top\" align=\"left\">\n                                 <div class=\"paragraph\">\n                                    <b>Bemrk</b>\n                                 </div>\n                              </td>\n                           </tr>\n                           <tr>\n                              <td style=\"width:83%;\" valign=\"top\" align=\"left\">\n                                 <div class=\"paragraph\">Voksne</div>\n                              </td>\n                              <td valign=\"top\" align=\"left\">\n                                 <div class=\"paragraph\">Startdosis p 80 mg (to 40 mg injektioner p en dag), efterfulgt af 40 mg hver anden uge startende en uge efter den frste</div>\n                                 <div class=\"paragraph\">dosis.</div>\n                              </td>\n                              <td valign=\"top\" align=\"left\">\n                                 <div class=\"paragraph\">Hvis du har utilstrkkeligt respons, kan din lge ge dosis til 40 mg hver uge eller 80 mg hver anden uge</div>\n                              </td>\n                           </tr>\n                           <tr>\n                              <td style=\"width:83%;\" valign=\"top\" align=\"left\">\n                                 <div class=\"paragraph\">Brn og unge fra 4 til 17 r, der vejer 30 kg eller mere</div>\n                              </td>\n                              <td valign=\"top\" align=\"left\">\n                                 <div class=\"paragraph\">Startdosis p 40 mg, efterfulgt af 40 mg en uge senere.</div>\n                                 <div class=\"paragraph\">Herefter er den sdvanlige dosis 40 mg hver anden uge.</div>\n                              </td>\n                              <td valign=\"top\" align=\"left\">\n                                 <div class=\"paragraph\">Ikke relevant</div>\n                              </td>\n                           </tr>\n                           <tr>\n                              <td style=\"width:83%;\" valign=\"top\" align=\"left\">\n                                 <div class=\"paragraph\">Brn og unge fra 4 til 17 r, der vejer fra 15 kg og mindre end 30 kg</div>\n                              </td>\n                              <td valign=\"top\" align=\"left\">\n                                 <div class=\"paragraph\">Startdosis p 20 mg, efterfulgt af 20 mg en uge senere.</div>\n                                 <div class=\"paragraph\">Herefter er den sdvanlige dosis 20 mg hver anden uge.</div>\n                              </td>\n                              <td valign=\"top\" align=\"left\">\n                                 <div class=\"paragraph\">Ikke relevant</div>\n                              </td>\n                           </tr>\n                        </table>\n                        <div class=\"paragraph\">\u00a0</div>\n                        <table border=\"1\" cellpadding=\"4\" cellspacing=\"0\" width=\"100%\" style=\"border-collapse:collapse;\">\n                           <colgroup/>\n                           <tr>\n                              <td colspan=\"3\" valign=\"top\" align=\"left\">\n                                 <div class=\"paragraph\">\n                                    <b>Hidrosadenitis suppurativa</b>\n                                 </div>\n                              </td>\n                           </tr>\n                           <tr>\n                              <td valign=\"top\" align=\"left\">\n                                 <div class=\"paragraph\">\n                                    <b>Alder eller vgt</b>\n                                 </div>\n                              </td>\n                              <td valign=\"top\" align=\"left\">\n                                 <div class=\"paragraph\">\n                                    <b>Hvor meget og hvor tit skal medicinen tages?</b>\n                                 </div>\n                              </td>\n                              <td valign=\"top\" align=\"left\">\n                                 <div class=\"paragraph\">\n                                    <b>Bemrk</b>\n                                 </div>\n                              </td>\n                           </tr>\n                           <tr>\n                              <td valign=\"top\" align=\"left\">\n                                 <div class=\"paragraph\">Voksne</div>\n                              </td>\n                              <td valign=\"top\" align=\"left\">\n                                 <div class=\"paragraph\">Startdosis p 160 mg (fire 40 mg injektioner p en dag eller to 40 mg injektioner pr. dag i to p hinanden flgende dage), efterfulgt af en dosis p 80 mg to uger senere (to 40 mg injektioner p samme dag).</div>\n                                 <div class=\"paragraph\">Efter yderligere 2 uger fortsttes med 40 mg hver uge eller 80 mg hver anden uge, som</div>\n                                 <div class=\"paragraph\">foreskrevet af din lge.</div>\n                              </td>\n                              <td valign=\"top\" align=\"left\">\n                                 <div class=\"paragraph\">Det anbefales, at du dagligt vasker de berrte omrder med et antiseptisk middel.</div>\n                              </td>\n                           </tr>\n                           <tr>\n                              <td valign=\"top\" align=\"left\">\n                                 <div class=\"paragraph\">Unge fra 12 til 17 r, som vejer 30 kg eller mere</div>\n                              </td>\n                              <td valign=\"top\" align=\"left\">\n                                 <div class=\"paragraph\">Startdosis er 80 mg (to injektioner med 40 mg p samme dag), efterfulgt af 40 mg hver anden uge startende en uge efter den frste dosis.</div>\n                              </td>\n                              <td valign=\"top\" align=\"left\">\n                                 <div class=\"paragraph\">Hvis du har utilstrkkeligt respons p Humira 40 mg hver anden uge, kan din lge ge dosis til 40 mg hver uge eller 80 mg hver anden uge.<br/>Det anbefales, at du dagligt vasker de berrte omrder med et antiseptisk middel.</div>\n                              </td>\n                           </tr>\n                        </table>\n                        <div class=\"paragraph\">\u00a0</div>\n                        <table border=\"1\" cellpadding=\"4\" cellspacing=\"0\" width=\"100%\" style=\"border-collapse:collapse;\">\n                           <colgroup/>\n                           <tr>\n                              <td colspan=\"3\" valign=\"top\" align=\"left\">\n                                 <div class=\"paragraph\">\n                                    <b>Crohns sygdom</b>\n                                 </div>\n                              </td>\n                           </tr>\n                           <tr>\n                              <td valign=\"top\" align=\"left\">\n                                 <div class=\"paragraph\">\n                                    <b>Alder eller vgt</b>\n                                 </div>\n                              </td>\n                              <td valign=\"top\" align=\"left\">\n                                 <div class=\"paragraph\">\n                                    <b>Hvor meget og hvor tit skal medicinen tages?</b>\n                                 </div>\n                              </td>\n                              <td valign=\"top\" align=\"left\">\n                                 <div class=\"paragraph\">\n                                    <b>Bemrk</b>\n                                 </div>\n                              </td>\n                           </tr>\n                           <tr>\n                              <td valign=\"top\" align=\"left\">\n                                 <div class=\"paragraph\">Brn, unge og voksne fra 6 r, som vejer 40 kg eller mere</div>\n                              </td>\n                              <td valign=\"top\" align=\"left\">\n                                 <div class=\"paragraph\">Startdosis p 80 mg (to 40 mg injektioner p en dag), efterfulgt af 40 mg 2 uger senere.</div>\n                                 <div class=\"paragraph\">Hvis et hurtigere respons er ndvendigt kan din lge ordinere en startdosis p 160 mg (fire 40 mg injektioner p en dag eller to 40 mg injektioner pr. dag i to p hinanden flgende dage), efterfulgt af 80 mg 2 uger senere (to 40 mg injektioner p en dag).</div>\n                                 <div class=\"paragraph\">Herefter er den sdvanlige dosis 40 mg hver anden uge.</div>\n                              </td>\n                              <td valign=\"top\" align=\"left\">\n                                 <div class=\"paragraph\">Din lge kan ge dosis til 40 mg hver uge eller 80 mg hver anden uge.</div>\n                              </td>\n                           </tr>\n                           <tr>\n                              <td valign=\"top\" align=\"left\">\n                                 <div class=\"paragraph\">Brn og unge fra 6 til 17 r, som vejer mindre end 40 kg</div>\n                              </td>\n                              <td valign=\"top\" align=\"left\">\n                                 <div class=\"paragraph\">Startdosis p 40 mg, efterfulgt af 20 mg 2 uger senere.</div>\n                                 <div class=\"paragraph\">Hvis et hurtigere respons er ndvendigt kan din lge ordinere en startdosis p 80 mg (to 40 mg injektioner p en dag), efterfulgt af 40 mg 2 uger senere.</div>\n                                 <div class=\"paragraph\">Herefter er den sdvanlige dosis 20 mg hver anden uge.</div>\n                              </td>\n                              <td valign=\"top\" align=\"left\">\n                                 <div class=\"paragraph\">Din lge kan ge dosis til 20 mg hver uge</div>\n                              </td>\n                           </tr>\n                        </table>\n                        <div class=\"paragraph\">\u00a0</div>\n                        <table border=\"1\" cellpadding=\"4\" cellspacing=\"0\" width=\"100%\" style=\"border-collapse:collapse;\">\n                           <colgroup/>\n                           <tr>\n                              <td colspan=\"3\" valign=\"top\" align=\"left\">\n                                 <div class=\"paragraph\">\n                                    <b>Colitis ulcerosa</b>\n                                 </div>\n                              </td>\n                           </tr>\n                           <tr>\n                              <td valign=\"top\" align=\"left\">\n                                 <div class=\"paragraph\">\n                                    <b>Alder eller vgt</b>\n                                 </div>\n                              </td>\n                              <td valign=\"top\" align=\"left\">\n                                 <div class=\"paragraph\">\n                                    <b>Hvor meget og hvor tit skal medicinen tages?</b>\n                                 </div>\n                              </td>\n                              <td valign=\"top\" align=\"left\">\n                                 <div class=\"paragraph\">\n                                    <b>Bemrk</b>\n                                 </div>\n                              </td>\n                           </tr>\n                           <tr>\n                              <td valign=\"top\" align=\"left\">\n                                 <div class=\"paragraph\">Voksne</div>\n                              </td>\n                              <td valign=\"top\" align=\"left\">\n                                 <div class=\"paragraph\">Startdosis p 160 mg (fire 40 mg injektioner p en dag eller to 40 mg injektioner pr. dag i to p hinanden flgende dage), efterfulgt af 80 mg 2 uger senere (to 40 mg injektioner p en dag).</div>\n                                 <div class=\"paragraph\">Herefter er den sdvanlige dosis 40 mg hver anden uge.</div>\n                              </td>\n                              <td valign=\"top\" align=\"left\">\n                                 <div class=\"paragraph\">Din lge kan ge dosis til 40 mg hver uge eller 80 mg hver anden uge.</div>\n                              </td>\n                           </tr>\n                           <tr>\n                              <td valign=\"top\" align=\"left\">\n                                 <div class=\"paragraph\">Brn og unge fra 6 r, der vejer mindre end 40 kg</div>\n                              </td>\n                              <td valign=\"top\" align=\"left\">\n                                 <div class=\"paragraph\">Startdosis p 80 mg (to 40 mg injektioner p n dag), efterfulgt af 40 mg (n 40 mg injektion) 2 uger senere.</div>\n                              </td>\n                              <td valign=\"top\" align=\"left\">\n                                 <div class=\"paragraph\">Du skal fortstte med at tage din sdvanlige dosis Humira, ogs efter du er fyldt 18 r.</div>\n                              </td>\n                           </tr>\n                           <tr>\n                              <td valign=\"top\" align=\"left\">\n                                 <div class=\"paragraph\">Brn og unge fra 6 r, der vejer 40 kg eller mere</div>\n                              </td>\n                              <td valign=\"top\" align=\"left\">\n                                 <div class=\"paragraph\">Startdosis p 160 mg (fire 40 mg injektioner p n dag eller to 40 mg injektioner pr. dag i to p hinanden flgende dage), efterfulgt af 80 mg (to 40 mg injektioner p n dag) 2 uger senere.</div>\n                                 <div class=\"paragraph\">\n                                    <br/>Herefter er den sdvanlige dosis 80 mg hver anden uge</div>\n                              </td>\n                              <td valign=\"top\" align=\"left\">\n                                 <div class=\"paragraph\">Du skal fortstte med at tage din sdvanlige dosis Humira, ogs efter du er fyldt 18 r.</div>\n                              </td>\n                           </tr>\n                        </table>\n                        <div class=\"paragraph\">\u00a0</div>\n                        <table border=\"1\" cellpadding=\"4\" cellspacing=\"0\" width=\"100%\" style=\"border-collapse:collapse;\">\n                           <colgroup/>\n                           <tr>\n                              <td colspan=\"3\" valign=\"top\" align=\"left\">\n                                 <div class=\"paragraph\">\n                                    <b>Ikke-infektis uveitis</b>\n                                 </div>\n                              </td>\n                           </tr>\n                           <tr>\n                              <td valign=\"top\" align=\"left\">\n                                 <div class=\"paragraph\">\n                                    <b>Alder eller vgt</b>\n                                 </div>\n                              </td>\n                              <td valign=\"top\" align=\"left\">\n                                 <div class=\"paragraph\">\n                                    <b>Hvor meget og hvor tit skal medicinen tages?</b>\n                                 </div>\n                              </td>\n                              <td valign=\"top\" align=\"left\">\n                                 <div class=\"paragraph\">\n                                    <b>Bemrk</b>\n                                 </div>\n                              </td>\n                           </tr>\n                           <tr>\n                              <td valign=\"top\" align=\"left\">\n                                 <div class=\"paragraph\">Voksne</div>\n                              </td>\n                              <td valign=\"top\" align=\"left\">\n                                 <div class=\"paragraph\">Startdosis p 80 mg (to 40 mg injektioner p en dag), efterfulgt af 40 mg hver anden uge med start en uge efter den frste dosis.</div>\n                              </td>\n                              <td valign=\"top\" align=\"left\">\n                                 <div class=\"paragraph\">Du kan fortstte med at bruge kortikosteroider eller andre lgemidler, som pvirker immunsystemet, mens du tager Humira.</div>\n                                 <div class=\"paragraph\">Humira kan ogs anvendes alene.</div>\n                              </td>\n                           </tr>\n                           <tr>\n                              <td valign=\"top\" align=\"left\">\n                                 <div class=\"paragraph\">Brn og unge fra 2 r der vejer mindre end 30 kg</div>\n                              </td>\n                              <td valign=\"top\" align=\"left\">\n                                 <div class=\"paragraph\">20 mg hver anden uge</div>\n                              </td>\n                              <td valign=\"top\" align=\"left\">\n                                 <div class=\"paragraph\">Din lge kan ogs ordinere en indledende dosis p 40 mg, som kan administreres en uge fr start af den sdvanlige dosis p 20 mg hver anden uge.</div>\n                                 <div class=\"paragraph\">Humira anbefales anvendt sammen med methotrexat.</div>\n                              </td>\n                           </tr>\n                           <tr>\n                              <td valign=\"top\" align=\"left\">\n                                 <div class=\"paragraph\">Brn og unge fra 2 r der vejer mindst 30 kg</div>\n                              </td>\n                              <td valign=\"top\" align=\"left\">\n                                 <div class=\"paragraph\">40 mg hver anden uge</div>\n                              </td>\n                              <td valign=\"top\" align=\"left\">\n                                 <div class=\"paragraph\">Din lge kan ogs ordinere en indledende dosis p 80 mg, som kan administreres en uge fr start af den sdvanlige dosis p 40 mg hver anden uge.</div>\n                                 <div class=\"paragraph\">Humira anbefales anvendt sammen med methotrexat.</div>\n                              </td>\n                           </tr>\n                        </table>\n                        <h3>  Metode og indgivelsesvej  </h3>\n                        <div class=\"paragraph\">Humira indgives ved injektion under huden (subkutan injektion).</div>\n                        <div class=\"paragraph\">\u00a0</div>\n                        <div class=\"paragraph\">\n                           <b>Der findes detaljeret instruktion om injektion af Humira i </b>\n                           <a href=\"#Section0\" title=\"Anchor link til afsnit - pkt. 7\">pkt. 7</a>\n                           <b>Injektion af Humira. </b>\n                        </div>\n                        <h3>  Hvis du har taget for meget Humira  </h3>\n                        <div class=\"paragraph\">Hvis du ved en fejltagelse injicerer Humira hyppigere end forskrevet af lgen eller apotekspersonalet, kontakt da lgen eller apotekspersonalet og fortl dem, at du har taget mere. Tag altid den ydre karton fra medicinen med, ogs selvom den er tom.</div>\n                        <h3>  Hvis du har glemt at tage Humira  </h3>\n                        <div class=\"paragraph\">Hvis du glemmer at give dig selv en injektion, br du injicere den nste dosis af Humira, s snart du kommer i tanke om det. Fortst dernst med at injicere nste dosis som planlagt p den oprindeligt fastlagte dag, som om du ikke havde glemt en dosis.</div>\n                        <h3>  Hvis du holder op med at tage Humira  </h3>\n                        <div class=\"paragraph\">Beslutningen om at stoppe med at bruge Humira skal diskuteres med din lge. Dine symptomer kan komme igen, hvis du stopper med at tage Humira.</div>\n                        <div class=\"paragraph\">\u00a0</div>\n                        <div class=\"paragraph\">Sprg lgen eller apotekspersonalet, hvis der er noget, du er i tvivl om.</div>\n                     </div>"
          }
        },
        {
          "title" : "4. Bivirkninger",
          "code" : {
            "coding" : [{
              "system" : "https://spor.ema.europa.eu/v1/lists/200000029659/terms/",
              "code" : "200000029910"
            }]
          },
          "text" : {
            "status" : "additional",
            "div" : "<div xmlns=\"http://www.w3.org/1999/xhtml\">\n                        <a name=\"Section4\"/>\n                        <div>\u00a0</div>\n                        <h2>4. Bivirkninger</h2>\n                        <div class=\"paragraph\">Dette lgemiddel kan som alle andre lgemidler give bivirkninger, men ikke alle fr bivirkninger. De fleste bivirkninger er af let til moderat grad. Der kan dog forekomme mere alvorlige bivirkninger, som krver behandling. Bivirkninger kan forekomme op til mindst 4 mneder efter den sidste Humira injektion.</div>\n                        <h3>  Kontakt omgende lgen, hvis du fr flgende symptomer  </h3>\n                        <ul>\n                           <li>alvorligt udslt, nldefeber eller andre tegn p en allergisk reaktion </li>\n                           <li>hvelser i ansigt, hnder eller fdder </li>\n                           <li>besvr med at trkke vejret eller synke </li>\n                           <li>stakndethed ved fysisk aktivitet eller nr du ligger ned, eller hvede fdder </li>\n                        </ul>\n                        <div class=\"paragraph\">\u00a0</div>\n                        <div class=\"paragraph\">\n                           <b>Kontakt lgen s hurtigt som muligt, hvis du fr flgende symptomer </b>\n                        </div>\n                        <ul>\n                           <li>tegn p infektion, ssom feber, flelse af sygdom, sr, tandproblemer eller smerter ved vandladning </li>\n                           <li>flelse af svaghed eller trthed </li>\n                           <li>hoste </li>\n                           <li>snurren og prikken </li>\n                           <li>flelseslshed </li>\n                           <li>dobbeltsyn </li>\n                           <li>svaghed i arme og ben </li>\n                           <li>en bule eller bent sr, som ikke vil hele </li>\n                           <li>tegn og symptomer, som kan tyde p blodsygdomme s som vedvarende feber, bl mrker, bldning, bleghed </li>\n                        </ul>\n                        <div class=\"paragraph\">Ovennvnte symptomer kan vre tegn p flgende bivirkninger, som er observeret ved brug af Humira:</div>\n                        <div class=\"paragraph\">\u00a0</div>\n                        <div class=\"paragraph\">\n                           <b>Meget almindelige </b>(kan pvirke flere end 1 ud af 10 personer) </div>\n                        <ul>\n                           <li>reaktioner ved injektionsstedet (herunder smerter, hvelse, rdme eller kle) </li>\n                           <li>luftvejsinfektioner (inklusive forklelse, lbende nse, bihulebetndelse, lungebetndelse) </li>\n                           <li>hovedpine </li>\n                           <li>mavesmerter </li>\n                           <li>kvalme og opkastning </li>\n                           <li>udslt </li>\n                           <li>muskuloskeletale smerter </li>\n                        </ul>\n                        <div class=\"paragraph\">\u00a0</div>\n                        <div class=\"paragraph\">\n                           <b>Almindelige</b> (kan pvirke op til 1 ud af 10 personer) </div>\n                        <ul>\n                           <li>alvorlige infektioner (inklusive blodforgiftning og influenza) </li>\n                           <li>tarminfektioner (inklusive betndelse i mave og tarm) </li>\n                           <li>hudinfektioner (inklusive bindevvsbetndelse og helvedsild) </li>\n                           <li>reinfektioner </li>\n                           <li>infektioner i munden (inklusive tandinfektioner og forklelsessr) </li>\n                           <li>infektioner i knsvejene </li>\n                           <li>urinvejsinfektion </li>\n                           <li>svampeinfektioner </li>\n                           <li>ledinfektioner </li>\n                           <li>godartede svulster </li>\n                           <li>hudkrft </li>\n                           <li>allergiske reaktioner (inklusive ssonbestemt allergi) </li>\n                           <li>dehydrering (vskemangel) </li>\n                           <li>humrsvingninger (inklusive depression) </li>\n                           <li>angst </li>\n                           <li>svnbesvr </li>\n                           <li>flelsesforstyrrelser ssom snurren, prikken eller flelseslshed </li>\n                           <li>migrne </li>\n                           <li>nerverodskompression (inklusive smerter i den nederste del af ryggen og bensmerter) </li>\n                           <li>synsforstyrrelser </li>\n                           <li>betndelse i jet </li>\n                           <li>betndelse i jenlget og hvede jne </li>\n                           <li>vertigo (fornemmelse af at snurre rundt) </li>\n                           <li>fornemmelse af hurtige hjerteslag </li>\n                           <li>hjt blodtryk </li>\n                           <li>rdmen </li>\n                           <li>blodansamling (ansamling af blod udenfor blodkarrerne) </li>\n                           <li>hoste </li>\n                           <li>astma </li>\n                           <li>kortndethed </li>\n                           <li>bldning i mave-tarm kanalen </li>\n                           <li>sure opstd (fordjelsesbesvr, oppustethed, halsbrand); </li>\n                           <li>syrereflukssygdom; </li>\n                           <li>Sjgrens syndrom (inklusive trre jne og tr mund) </li>\n                           <li>kle </li>\n                           <li>klende udslt </li>\n                           <li>bl mrker </li>\n                           <li>inflammation i huden (ssom eksem) </li>\n                           <li>fingernegle og tnegle knkker </li>\n                           <li>get svedtendens </li>\n                           <li>hrtab </li>\n                           <li>nye udbrud eller forvrring af psoriasis </li>\n                           <li>muskelspasmer </li>\n                           <li>blod i urinen </li>\n                           <li>nyreproblemer </li>\n                           <li>brystsmerter </li>\n                           <li>dem (hvelse) </li>\n                           <li>feber </li>\n                           <li>nedsat antal blodplader med forget risiko for bldning eller bl mrker </li>\n                           <li>forringet srheling </li>\n                        </ul>\n                        <div class=\"paragraph\">\u00a0</div>\n                        <div class=\"paragraph\">\n                           <b>Ikke almindelige</b> (kan pvirke op til 1 ud af 100 personer) </div>\n                        <ul>\n                           <li>opportunistiske infektioner (som inkluderere tuberkulose og andre infektioner, som forekommer, nr modstandskraften mod sygdom er nedsat) </li>\n                           <li>neurologiske infektioner (inklusive viral meningitis) </li>\n                           <li>jeninfektioner </li>\n                           <li>bakterieinfektioner </li>\n                           <li>irritation og infektion i tyktarmen (diverticulitis) </li>\n                           <li>krft </li>\n                           <li>krft, der rammer lymfesystemet </li>\n                           <li>modermrkekrft </li>\n                           <li>sygdomme i immunsystemet som kan pvirke lungerne, huden og lymfeknuderne (viser sig oftest som sarkoidose) </li>\n                           <li>vaskulitis (betndelse i blodkar) </li>\n                           <li>rysten </li>\n                           <li>neuropati (nervelidelse) </li>\n                           <li>slagtilflde </li>\n                           <li>hretab, summen for rerne </li>\n                           <li>fornemmelse af uregelmssige hjerteslag ssom oversprungne slag </li>\n                           <li>hjerteproblemer, som kan forrsage kortndethed og hvede ankler </li>\n                           <li>hjertetilflde </li>\n                           <li>sklignende udposning p vggen af en strre pulsre (aneurisme), betndelse og blodprop i en blodre, tilstopning af et blodkar </li>\n                           <li>lungesygdom som forrsager kortndethed (inklusive inflammation/vvsirritation) </li>\n                           <li>blodprop i lungerne (lungeemboli) </li>\n                           <li>unormal ophobning af vske mellem lungehinderne (pleuraeffusion) </li>\n                           <li>inflammation i bugspytkirtlen, som kan give alvorlige smerter i maven og ryggen </li>\n                           <li>synkebesvr </li>\n                           <li>dem i ansigtet (hvelse i ansigtet) </li>\n                           <li>inflammation i galdeblren, galdesten </li>\n                           <li>fedtholdig lever; </li>\n                           <li>nattesved </li>\n                           <li>ar </li>\n                           <li>unormale muskelssvigt </li>\n                           <li>systemisk lupus erythematosus (indbefatter betndelse i huden, hjertet, lungerne, leddene og andre organsystemer) </li>\n                           <li>svnafbrydelser </li>\n                           <li>impotens </li>\n                           <li>inflammationer </li>\n                        </ul>\n                        <div class=\"paragraph\">\n                           <b>\n                              <br/>Sjlden</b> (kan pvirke op til 1 ud af 1.000 personer) </div>\n                        <ul>\n                           <li>leukmi (krft som pvirker blod og knoglemarv) </li>\n                           <li>alvorlig allergisk reaktion med shock </li>\n                           <li>dissemineret sklerose </li>\n                           <li>nerveforstyrrelser (ssom inflammation (betndelse) i synsnerven og Guillain-Barr syndrom, som kan forrsage muskelsvaghed, unormal flesans, prikken i arme og overkrop) </li>\n                           <li>hjertestop </li>\n                           <li>lungefibrose (dannelse af arvv i lungerne) </li>\n                           <li>perforering af tarmen </li>\n                           <li>hepatit </li>\n                           <li>genopblussen af hepatitis B </li>\n                           <li>autoimmun hepatit (leverbetndelse forrsaget af kroppens eget immunsystem) </li>\n                           <li>inflammation/betndelse i hudens blodkar (kutan vaskulitis) </li>\n                           <li>Stevens-Johnsons syndrom (tidlige symptomer inkluderer utilpashed, feber, hovedpine og udslt) </li>\n                           <li>dem i ansigtet (hvelse i ansigtet) forbundet med allergiske reaktioner </li>\n                           <li>betndelseslignende hududslt (erythema multiforme) </li>\n                           <li>lupus-lignende syndrom </li>\n                           <li>angiodem (lokal hvelse af huden) </li>\n                           <li>lichenoid hudreaktion (klende rdligt-lilla hududslt) </li>\n                        </ul>\n                        <div class=\"paragraph\">\n                           <b>\n                              <br/>Ikke kendt</b> (hyppigheden kan ikke vurderes ud fra forhndenvrende data) </div>\n                        <ul>\n                           <li>hepatosplenisk T-celle lymfom (en sjlden form for blodkrft, som ofte er ddelig) </li>\n                           <li>Merkelcelle karcinom (en type hudkrft) </li>\n                           <li>Kaposis sarkom, en sjlden type krft, der er forbundet med infektion med humant herpesvirus 8. Kaposis sarkom forekommer oftest som lilla lsioner p huden </li>\n                           <li>leversvigt </li>\n                           <li>forvrring af en tilstand, som kaldes dermatomyositis (ses som hududslt ledsaget af muskelsvaghed) </li>\n                           <li>vgtforgelse (for de fleste patienters vedkommende var vgtforgelsen lille) </li>\n                        </ul>\n                        <div class=\"paragraph\">\n                           <br/>Nogle bivirkninger, som er set med Humira har ikke symptomer og kan kun opdages ved blodprver. </div>\n                        <div class=\"paragraph\">\u00a0</div>\n                        <div class=\"paragraph\">Disse inkluderer:</div>\n                        <div class=\"paragraph\">\u00a0</div>\n                        <div class=\"paragraph\">\n                           <b>Meget almindelige </b>(kan pvirke mere end 1 ud af 10 personer) </div>\n                        <ul>\n                           <li>nedsat antal af hvide blodlegemer </li>\n                           <li>nedsat antal af rde blodlegemer </li>\n                           <li>forhjede lipider i blodet </li>\n                           <li>forhjede leverenzymer </li>\n                        </ul>\n                        <div class=\"paragraph\">\u00a0</div>\n                        <div class=\"paragraph\">\n                           <b>Almindelige </b>(kan pvirke op til 1 ud af 10 personer) </div>\n                        <ul>\n                           <li>forhjet antal hvide blodlegemer </li>\n                           <li>nedsat antal blodplader </li>\n                           <li>forhjet urinsyre i blodet </li>\n                           <li>unormale blodmlinger af natrium </li>\n                           <li>lave blodmlinger af calcium </li>\n                           <li>lave blodmlinger af fosfat </li>\n                           <li>hjt blodsukker </li>\n                           <li>hje blodmlinger af lactatdehydrogenase </li>\n                           <li>tilstedevrelse af autoantistoffer i blodet </li>\n                           <li>lavt kalium i blodet </li>\n                        </ul>\n                        <div class=\"paragraph\">\u00a0</div>\n                        <div class=\"paragraph\">\n                           <b>Ikke almindelige</b> (kan pvirke op til 1 ud af 100 personer) </div>\n                        <ul>\n                           <li>forhjede bilirubinmlinger (leverblodtest) </li>\n                        </ul>\n                        <div class=\"paragraph\">\u00a0</div>\n                        <div class=\"paragraph\">\n                           <b>Sjldne </b>(kan pvirke op til 1 ud af 1.000 personer) </div>\n                        <ul>\n                           <li>nedsat antal hvide blodlegemer, rde blodlegemer og blodplader. </li>\n                        </ul>\n                        <h3>  Indberetning af bivirkninger  </h3>\n                        <div class=\"paragraph\">Hvis du oplever bivirkninger, br du tale med din lge eller apotekspersonalet. Dette glder ogs mulige bivirkninger, som ikke er medtaget i denne indlgsseddel. Du eller dine prrende kan ogs indberette bivirkninger direkte tilLgemiddelstyrelsen via </div>\n                        <div class=\"paragraph\">Lgemiddelstyrelsen </div>\n                        <div class=\"paragraph\">Axel Heides Gade 1 </div>\n                        <div class=\"paragraph\">DK-2300 Kbenhavn S </div>\n                        <div class=\"paragraph\">Websted: www.meldenbivirkning.dk </div>\n                        <div class=\"paragraph\">\u00a0</div>\n                        <div class=\"paragraph\">Ved at indrapportere bivirkninger kan du hjlpe med at fremskaffe mere information om sikkerheden af dette lgemiddel.</div>\n                        <div class=\"paragraph\">\n                           <a href=\"https://www.meldenbivirkning.dk\" title=\"Meld en bivirkning\">\n\t\t\t\t\t\t\t\tMeld en bivirkning.\n\t\t\t\t\t\t\t</a>\n                        </div>\n                     </div>"
          }
        },
        {
          "title" : "5. Opbevaring",
          "code" : {
            "coding" : [{
              "system" : "https://spor.ema.europa.eu/v1/lists/200000029659/terms/",
              "code" : "200000029913"
            }]
          },
          "text" : {
            "status" : "additional",
            "div" : "<div xmlns=\"http://www.w3.org/1999/xhtml\">\n                        <a name=\"Section5\"/>\n                        <div>\u00a0</div>\n                        <h2>5. Opbevaring</h2>\n                        <div class=\"paragraph\">Opbevar lgemidlet utilgngeligt for brn.</div>\n                        <div class=\"paragraph\">\u00a0</div>\n                        <div class=\"paragraph\">Brug ikke Humira efter den udlbsdato, der str p pakningen efter EXP.</div>\n                        <div class=\"paragraph\">\u00a0</div>\n                        <div class=\"paragraph\">Opbevares i kleskab ( 2 - 8C). M ikke nedfryses. Opbevar sprjten i den ydre karton for at beskytte mod lys.</div>\n                        <div class=\"paragraph\">\u00a0</div>\n                        <div class=\"paragraph\">Alternativ opbevaring:</div>\n                        <div class=\"paragraph\">\u00a0</div>\n                        <div class=\"paragraph\">Hvis det er ndvendigt (f.eks. nr du rejser), kan en enkelt Humira fyldt injektionssprjte opbevares ved stuetemperatur (op til 25 C) i en periode p hjst 14 dage - vr sikker p at beskytte den mod lys. Nr injektionssprjten er taget ud af kleskabet og har vret opbevaret ved stuetemperatur, <b>skal injektionssprjten bruges indenfor 14 dage eller kasseres</b>, ogs selv om den lgges tilbage i kleskab.</div>\n                        <div class=\"paragraph\">\u00a0</div>\n                        <div class=\"paragraph\">Du skal registrere den dato, hvor injektionssprjten frst tages ud af kleskabet, og den dato efter hvilken, den skal kasseres.</div>\n                        <div class=\"paragraph\">\u00a0</div>\n                        <div class=\"paragraph\">Sprg lgen eller apotekspersonalet, hvordan du skal bortskaffe medicinrester. Af hensyn til miljet m du ikke smide medicinrester i aflbet, toilettet eller skraldespanden.</div>\n                     </div>"
          }
        },
        {
          "title" : "6. Pakningsstrrelser og yderligere oplysninger",
          "code" : {
            "coding" : [{
              "system" : "https://spor.ema.europa.eu/v1/lists/200000029659/terms/",
              "code" : "200000029914"
            }]
          },
          "text" : {
            "status" : "additional",
            "div" : "<div xmlns=\"http://www.w3.org/1999/xhtml\">\n                        <a name=\"Section6\"/>\n                        <div>\u00a0</div>\n                        <h2>6. Pakningsstrrelser og yderligere oplysninger</h2>\n                        <h3>  Humira indeholder   </h3>\n                        <div class=\"paragraph\">Aktivt stof: adalimumab.</div>\n                        <div class=\"paragraph\">vrige indholdsstoffer: mannitol, polysorbat 80 og vand til injektionsvsker.</div>\n                        <h3>  Udseende og pakningsstrrelser </h3>\n                        <div class=\"paragraph\">Humira 40 mg injektionsvske, oplsning i fyldt injektionssprjte leveres som en steril oplsning med 40 mg adalimumab i 0,4 ml injektionsvske.</div>\n                        <div class=\"paragraph\">\u00a0</div>\n                        <div class=\"paragraph\">Humira fyldt sprjte er en glas sprjte indeholdende en oplsning af adalimumab.</div>\n                        <div class=\"paragraph\">Hver pakning indeholder 1, 2, 4 eller 6 fyldte injektionssprjter til patientbrug med henholdsvis 1, 2, 4 eller 6 alkoholservietter.</div>\n                        <div class=\"paragraph\">\u00a0</div>\n                        <div class=\"paragraph\">Ikke alle pakningsstrrelser er ndvendig vis markedsfrt.</div>\n                        <div class=\"paragraph\">\u00a0</div>\n                        <div class=\"paragraph\">Humira kan vre tilgngeligt i et htteglas, en fyldt sprjte og en fyldt pen.</div>\n                     </div>"
          },
          "section" : [{
            "title" : "Indehaver af markedsfringstilladelsen og fremstiller",
            "code" : {
              "coding" : [{
                "system" : "https://spor.ema.europa.eu/v1/lists/200000029659/terms/",
                "code" : "200000029917"
              }]
            },
            "text" : {
              "status" : "additional",
              "div" : "<div xmlns=\"http://www.w3.org/1999/xhtml\">\n                           <h2>Indehaver af markedsfringstilladelsen og fremstiller</h2>\n                           <h3>  Indehaver af markedsfringstilladelsen:  </h3>\n                           <div class=\"paragraph\">AbbVie Deutschland GmbH &amp;amp; Co. KG <br/>Knollstrasse <br/>67061 Ludwigshafen <br/>Tyskland </div>\n                           <h3>  Fremstiller:  </h3>\n                           <div class=\"paragraph\">AbbVie Biotechnology GmbH <br/>Knollstrasse <br/>67061 Ludwigshafen <br/>Tyskland </div>\n                           <div class=\"paragraph\">\u00a0</div>\n                           <div class=\"paragraph\">Hvis du nsker yderligere oplysninger om dette lgemiddel, skal du henvende dig til den lokale reprsentant for indehaveren af markedsfringstilladelsen:</div>\n                           <div class=\"paragraph\">\u00a0</div>\n                           <div class=\"paragraph\">\n                              <b>Danmark </b>\n                           </div>\n                           <div class=\"paragraph\">AbbVie A/S</div>\n                           <div class=\"paragraph\">Tlf: +45 72 30 20 28</div>\n                           <div class=\"paragraph\">\u00a0</div>\n                           <div class=\"paragraph\">Du kan finde yderligere oplysninger om Humira p Det Europiske Lgemiddelagenturs hjemmeside: http://www.ema.europa.eu/.</div>\n                           <div class=\"paragraph\">\u00a0</div>\n                           <div class=\"paragraph\">\n                              <b>Hvis du nsker at rekvirere denne indlgsseddel som magnaprint, kan du kontakte den lokale reprsentant for indehaveren af markedsfringstilladelsen.</b>\n                           </div>\n                           <div class=\"paragraph\">\u00a0</div>\n                        </div>"
            }
          },
          {
            "title" : "Denne indlgsseddel blev senest ndret 09/2021",
            "code" : {
              "coding" : [{
                "system" : "https://spor.ema.europa.eu/v1/lists/200000029659/terms/",
                "code" : "200000029919"
              }]
            },
            "text" : {
              "status" : "additional",
              "div" : "<div xmlns=\"http://www.w3.org/1999/xhtml\">\n                           <h2>Denne indlgsseddel blev senest ndret 09/2021</h2>\n                        </div>"
            }
          },
          {
            "title" : "7. 7. Injektion af Humira",
            "code" : {
              "coding" : [{
                "system" : "https://spor.ema.europa.eu/v1/lists/200000029659/terms/",
                "code" : "200000029920"
              }]
            },
            "text" : {
              "status" : "additional",
              "div" : "<div xmlns=\"http://www.w3.org/1999/xhtml\">\n                           <a name=\"Section8\"/>\n                           <div>\u00a0</div>\n                           <h2>7. 7. Injektion af Humira</h2>\n                           <ul>\n                              <li>Flgende er en vejledning i, hvordan man injicerer Humira subkutant med den fyldte injektionssprjte. Ls vejledningen grundigt, og flg den trin for trin. </li>\n                              <li>Din lge eller dennes assistent, sygeplejerske eller apotekspersonalet vil instruere dig i selvinjektion. </li>\n                              <li>Forsg ikke at injicere dig selv, fr du er sikker p, hvordan du skal forberede og give injektionen. </li>\n                              <li>Efter grundig oplring kan injektionen gives af dig selv eller af en anden person, f.eks. et familiemedlem eller en ven. </li>\n                           </ul>\n                           <div class=\"paragraph\">Brug kun hver fyldt injektionssprjte til n injektion.</div>\n                           <div class=\"paragraph\">\u00a0</div>\n                           <div class=\"paragraph\">\n                              <b>Humira fyldt injektionssprjte</b>\n                           </div>\n                           <div class=\"paragraph\">\u00a0</div>\n                           <div class=\"paragraph\">\n                              <img src=\"#179697\" alt=\"Humira AbbVie Deutschland GmbH &amp; Co. KG injektionsvske, oplsning i fyldt injektionssprjte 40mg/0,4 ml\"/>\n                           </div>\n                           <div class=\"paragraph\">\u00a0</div>\n                           <div class=\"paragraph\">\n                              <b>Brug ikke den fyldte injektionssprjte og kontakt din lge eller apotekspersonalet, hvis</b>\n                           </div>\n                           <ul>\n                              <li>vsken er uklar, misfarvet eller indeholder flager eller partikler </li>\n                              <li>udlbsdatoen (EXP) er passeret </li>\n                              <li>vsken har vret frosset eller ligget i direkte sollys </li>\n                              <li>den fyldte injektionssprjte har vret tabt eller knust </li>\n                           </ul>\n                           <div class=\"paragraph\">\n                              <b>Fjern frst beskyttelseshtten umiddelbart fr injektion. Opbevares utilgngeligt for brn.</b>\n                           </div>\n                           <div class=\"paragraph\">\u00a0</div>\n                           <table border=\"1\" cellpadding=\"4\" cellspacing=\"0\" width=\"100%\" style=\"border-collapse:collapse;\">\n                              <colgroup>\n                                 <col/>\n                              </colgroup>\n                              <tr>\n                                 <td valign=\"top\" align=\"left\">\n                                    <div class=\"paragraph\">\n                                       <b>TRIN 1</b>\n                                    </div>\n                                 </td>\n                              </tr>\n                              <tr>\n                                 <td valign=\"top\" align=\"left\">\n                                    <div class=\"paragraph\">Tag Humira ud af kleskabet.</div>\n                                    <div class=\"paragraph\">\n                                       <br/>Lad Humira ligge ved stuetemperatur i <b>15 til 30</b> minuter inden injektion.</div>\n                                    <ul>\n                                       <li>\n                                          <b>Fjern ikke </b>beskyttelseshtten, imens Humira opnr stuetemperatur </li>\n                                       <li>\n                                          <b>Opvarm </b>ikke Humira p nogen mde. F.eks. <b>opvarm </b>ikke Humira i en mikroovn eller i varmt vand </li>\n                                    </ul>\n                                 </td>\n                              </tr>\n                              <tr>\n                                 <td valign=\"top\" align=\"left\">\n                                    <div class=\"paragraph\">\n                                       <b>TRIN 2</b>\n                                    </div>\n                                    <div class=\"paragraph\">\u00a0</div>\n                                    <div class=\"paragraph\">\n                                       <img src=\"#179698\" alt=\"Humira AbbVie Deutschland GmbH &amp; Co. KG injektionsvske, oplsning i fyldt injektionssprjte 40mg/0,4 ml\"/>\n                                    </div>\n                                    <div class=\"paragraph\">\u00a0</div>\n                                    <div class=\"paragraph\">Kontrollr udlbsdatoen (EXP). <b>Brug ikke</b> den fyldte injektionssprjte, hvis udlbsdatoen (EXP) er passeret.</div>\n                                    <div class=\"paragraph\">\n                                       <br/>Lg flgende ting p en ren, flad overflade</div>\n                                    <ul>\n                                       <li>1 fyldt injektionssprjte til engangsbrug og </li>\n                                       <li>1 alkoholserviet </li>\n                                    </ul>\n                                    <div class=\"paragraph\">Vask og tr hnderne.</div>\n                                 </td>\n                              </tr>\n                              <tr>\n                                 <td valign=\"top\" align=\"left\">\n                                    <div class=\"paragraph\">\n                                       <b>TRIN 3</b>\n                                    </div>\n                                    <div class=\"paragraph\">\u00a0</div>\n                                    <div class=\"paragraph\">\n                                       <img src=\"#179699\" alt=\"Humira AbbVie Deutschland GmbH &amp; Co. KG injektionsvske, oplsning i fyldt injektionssprjte 40mg/0,4 ml\"/>\n                                    </div>\n                                    <div class=\"paragraph\">\u00a0</div>\n                                    <div class=\"paragraph\">Vlg et injektionssted:</div>\n                                    <ul>\n                                       <li>P forsiden af dit lr eller </li>\n                                       <li>P din mave (abdomen) mindst 5 cm fra din navle </li>\n                                       <li>Mindst 3 cm fra dit senest anvendte injektionssted </li>\n                                    </ul>\n                                    <div class=\"paragraph\">Tr injektionsstedet af med cirklende bevgelser med den medflgende alkoholserviet.</div>\n                                    <ul>\n                                       <li>\n                                          <b>Injicer ikke </b>gennem tjet </li>\n                                       <li>\n                                          <b>Injicer ikke </b>i et omrde, hvor huden er m, forslet, rd, hrd, arret eller har mrker eller omrder med plaque-psoriasis </li>\n                                    </ul>\n                                    <div class=\"paragraph\">\u00a0</div>\n                                 </td>\n                              </tr>\n                              <tr>\n                                 <td valign=\"top\" align=\"left\">\n                                    <div class=\"paragraph\">\n                                       <b>TRIN 4</b>\n                                    </div>\n                                    <div class=\"paragraph\">\u00a0</div>\n                                    <div class=\"paragraph\">\n                                       <img src=\"#178239\" alt=\"Humira AbbVie Deutschland GmbH &amp; Co. KG injektionsvske, oplsning i fyldt injektionssprjte 40mg/0,4 ml\"/>\n                                    </div>\n                                    <div class=\"paragraph\">\u00a0</div>\n                                    <div class=\"paragraph\">Hold den fyldte injektionssprjte i en hnd.</div>\n                                    <div class=\"paragraph\">\n                                       <br/>Kontrollr vsken i den fyldte injektionssprjte.</div>\n                                    <div class=\"paragraph\">\u00a0</div>\n                                    <ul>\n                                       <li>Kontrollr at vsken er klar og farvels </li>\n                                       <li>\n                                          <b>Brug ikke</b> den fyldte injektionssprjte, hvis vsken er uklar eller indeholder partikler </li>\n                                       <li>\n                                          <b>Brug ikke</b> den fyldte injektionssprjte, hvis den har vret tabt eller knust </li>\n                                    </ul>\n                                    <div class=\"paragraph\">Trk forsigtigt beskyttelseshtten lige af med den anden hnd. Kassr htten. St ikke htten p igen</div>\n                                    <div class=\"paragraph\">\u00a0</div>\n                                    <ul>\n                                       <li>\n                                          <b>Berr ikke </b>kanylen med fingrene, og lad ikke kanylen rre nogen flade </li>\n                                    </ul>\n                                    <div class=\"paragraph\">\u00a0</div>\n                                 </td>\n                              </tr>\n                              <tr>\n                                 <td valign=\"top\" align=\"left\">\n                                    <div class=\"paragraph\">\n                                       <b>TRIN 5</b>\n                                    </div>\n                                    <div class=\"paragraph\">\u00a0</div>\n                                    <div class=\"paragraph\">\n                                       <img src=\"#178240\" alt=\"Humira AbbVie Deutschland GmbH &amp; Co. KG injektionsvske, oplsning i fyldt injektionssprjte 40mg/0,4 ml\"/>\n                                    </div>\n                                    <div class=\"paragraph\">Hold den fyldte injektionssprjte med kanylen pegende opad.</div>\n                                    <div class=\"paragraph\">\u00a0</div>\n                                    <ul>\n                                       <li>Hold den fyldte injektionssprjte med en hnd, s du kan se luften i den fyldte injektionssprjte. </li>\n                                    </ul>\n                                    <div class=\"paragraph\">Pres langsomt stemplet ind for at presse luften ud af kanylen.</div>\n                                    <ul>\n                                       <li>Det er normalt at se en drbe vske komme ud af kanylen </li>\n                                    </ul>\n                                 </td>\n                              </tr>\n                              <tr>\n                                 <td valign=\"top\" align=\"left\">\n                                    <div class=\"paragraph\">\n                                       <b>TRIN 6</b>\n                                    </div>\n                                    <div class=\"paragraph\">\u00a0</div>\n                                    <div class=\"paragraph\">\n                                       <img src=\"#178241\" alt=\"Humira AbbVie Deutschland GmbH &amp; Co. KG injektionsvske, oplsning i fyldt injektionssprjte 40mg/0,4 ml\"/>\n                                    </div>\n                                    <div class=\"paragraph\">\u00a0</div>\n                                    <div class=\"paragraph\">Hold den fyldte injektionssprjte med den ene hnd mellem tommel- og pegefingrene, som du holder en blyant.</div>\n                                    <div class=\"paragraph\">\n                                       <br/>Klem om huden p injektionsstedet med den anden hnd for at hve omrdet og hold fast.</div>\n                                 </td>\n                              </tr>\n                              <tr>\n                                 <td valign=\"top\" align=\"left\">\n                                    <div class=\"paragraph\">\n                                       <b>TRIN 7</b>\n                                    </div>\n                                    <div class=\"paragraph\">\u00a0</div>\n                                    <div class=\"paragraph\">\n                                       <img src=\"#178242\" alt=\"Humira AbbVie Deutschland GmbH &amp; Co. KG injektionsvske, oplsning i fyldt injektionssprjte 40mg/0,4 ml\"/>\n                                    </div>\n                                    <div class=\"paragraph\">\u00a0</div>\n                                    <div class=\"paragraph\">Pres kanylen med en hurtig, kort bevgelse helt ind i huden i en vinkel p 45.</div>\n                                    <ul>\n                                       <li>Slip med hnden, der klemmer om huden, nr kanylen er inde </li>\n                                    </ul>\n                                    <div class=\"paragraph\">Pres langsomt stemplet helt ned for at injicere oplsningen og tmme sprjten.</div>\n                                 </td>\n                              </tr>\n                              <tr>\n                                 <td valign=\"top\" align=\"left\">\n                                    <div class=\"paragraph\">\n                                       <b>TRIN 8</b>\n                                    </div>\n                                    <div class=\"paragraph\">\u00a0</div>\n                                    <div class=\"paragraph\">\n                                       <img src=\"#179700\" alt=\"Humira AbbVie Deutschland GmbH &amp; Co. KG injektionsvske, oplsning i fyldt injektionssprjte 40mg/0,4 ml\"/>\n                                    </div>\n                                    <div class=\"paragraph\">\u00a0</div>\n                                    <div class=\"paragraph\">Nr injektionen er frdig, trkkes kanylen ud af huden og holdes i den samme vinkel, som da den blev frt ind.</div>\n                                    <div class=\"paragraph\">\n                                       <br/>Anbring en vatkugle eller en gazeserviet p injektionsstedet, nr injektionen er fuldfrt.</div>\n                                    <ul>\n                                       <li>Gnid ikke <b>p injektionsstedet</b>\n                                       </li>\n                                       <li>Lidt blod p injektionsstedet er normalt </li>\n                                    </ul>\n                                 </td>\n                              </tr>\n                           </table>\n                           <div class=\"paragraph\">\u00a0</div>\n                           <table border=\"1\" cellpadding=\"4\" cellspacing=\"0\" width=\"100%\" style=\"border-collapse:collapse;\">\n                              <colgroup>\n                                 <col/>\n                              </colgroup>\n                              <tr>\n                                 <td valign=\"top\" align=\"left\">\n                                    <div class=\"paragraph\">\n                                       <b>TRIN 9</b>\n                                    </div>\n                                    <div class=\"paragraph\">\u00a0</div>\n                                    <div class=\"paragraph\">Den brugte injektionssprjte kasseres i en srlig beholder, som angivet af din lge, sygeplejerske eller apotek. <b>St </b>aldrig htten p kanylen igen.</div>\n                                    <div class=\"paragraph\">\u00a0</div>\n                                    <ul>\n                                       <li>\n                                          <b>Genbrug ikke og </b>smid ikke den fyldte injektionssprjte ud med husholdningsaffald </li>\n                                       <li>\n                                          <b>Opbevar altid </b>den fyldte injektionssprjte og den srlige beholder utilgngeligt for brn </li>\n                                    </ul>\n                                    <div class=\"paragraph\">Beskyttelseshtten, alkoholservietten, vatkugle eller gazeserviet, blisterpakning og pakning kan smides ud med husholdningsaffald.</div>\n                                 </td>\n                              </tr>\n                           </table>\n                           <div class=\"paragraph\">\u00a0</div>\n                        </div>"
            },
            "entry" : [{
              "reference" : "#179697"
            },
            {
              "reference" : "#179698"
            },
            {
              "reference" : "#179699"
            },
            {
              "reference" : "#178239"
            },
            {
              "reference" : "#178240"
            },
            {
              "reference" : "#178241"
            },
            {
              "reference" : "#178242"
            },
            {
              "reference" : "#179700"
            }]
          }]
        }]
      }]
    }
  },
  {
    "fullUrl" : "https://gravitatehealth.eu/fhir/nordic-epi/MedicinalProductDefinition/IBD-MPD-4",
    "resource" : {
      "resourceType" : "MedicinalProductDefinition",
      "id" : "IBD-MPD-4",
      "meta" : {
        "profile" : ["http://hl7.org/fhir/uv/emedicinal-product-info/StructureDefinition/MedicinalProductDefinition-uv-epi",
        "https://gravitatehealth.eu/fhir/nordic-epi-ig/StructureDefinition/Nordic-ePI-MedicinalProductDefinition"]
      },
      "identifier" : [{
        "system" : "http://legemiddelverket.no/FEST/LegemiddelMerkevareID",
        "value" : "ID_CDA2295D-F1AB-4BE5-898A-FEDFECE5A27B"
      }],
      "name" : [{
        "productName" : "Humira inj, oppl 40 mg/spryte"
      }]
    }
  },
  {
    "fullUrl" : "https://gravitatehealth.eu/fhir/nordic-epi/PackagedProductDefinition/IBD-PPD-4",
    "resource" : {
      "resourceType" : "PackagedProductDefinition",
      "id" : "IBD-PPD-4",
      "meta" : {
        "profile" : ["http://hl7.org/fhir/uv/emedicinal-product-info/StructureDefinition/PackagedProductDefinition-uv-epi",
        "https://gravitatehealth.eu/fhir/nordic-epi-ig/StructureDefinition/Nordic-ePI-PackagedProductDefinition"]
      },
      "identifier" : [{
        "system" : "http://legemiddelverket.no/FEST/LegemiddelPakningID",
        "value" : "ID_BF9E21C6-92B0-47E6-97A3-9449D2562919"
      },
      {
        "system" : "https://farmalogg.no/varenummer",
        "value" : "458163"
      },
      {
        "system" : "https://pharmaca.fi/vnr",
        "value" : "517641"
      }],
      "name" : "Humira inj, oppl 40 mg/spryte",
      "packageFor" : [{
        "reference" : "MedicinalProductDefinition/IBD-MPD-4"
      }]
    }
  }]
}