{
  "resourceType" : "Bundle",
  "id" : "FK545806",
  "meta" : {
    "profile" : ["http://hl7.org/fhir/uv/emedicinal-product-info/StructureDefinition/Bundle-uv-epi"]
  },
  "language" : "no",
  "identifier" : {
    "system" : "https://felleskatalogen.no/vsid",
    "value" : "545806"
  },
  "type" : "document",
  "timestamp" : "2021-01-01T01:01:01Z",
  "entry" : [{
    "fullUrl" : "https://gravitatehealth.eu/fhir/nordic-epi/Composition/545806",
    "resource" : {
      "resourceType" : "Composition",
      "id" : "545806",
      "meta" : {
        "profile" : ["http://hl7.org/fhir/uv/emedicinal-product-info/StructureDefinition/Composition-uv-epi",
        "https://gravitatehealth.eu/fhir/nordic-epi-ig/StructureDefinition/Nordic-ePI-Composition-PIL"]
      },
      "language" : "no",
      "contained" : [{
        "resourceType" : "Binary",
        "id" : "13935878",
        "contentType" : "image/jpeg",
        "data" : ""
      },
      {
        "resourceType" : "Binary",
        "id" : "13935877",
        "contentType" : "image/jpeg",
        "data" : ""
      }],
      "identifier" : [{
        "system" : "https://felleskatalogen.no/vsid",
        "value" : "545806"
      }],
      "status" : "final",
      "type" : {
        "coding" : [{
          "system" : "https://spor.ema.europa.eu/v1/lists/100000155531/terms/",
          "code" : "100000155538"
        }]
      },
      "subject" : [{
        "reference" : "MedicinalProductDefinition/COPD-MPD-6"
      }],
      "date" : "2021-01-01",
      "author" : [{
        "identifier" : {
          "system" : "https://gravitatehealth.eu/organization",
          "value" : "felleskatalogen"
        }
      }],
      "title" : "Airomir Autohaler Teva",
      "section" : [{
        "title" : "Pakningsvedlegg: Informasjon til brukeren",
        "code" : {
          "coding" : [{
            "system" : "https://spor.ema.europa.eu/v1/lists/200000029659/terms/",
            "code" : "200000029894"
          }]
        },
        "text" : {
          "status" : "additional",
          "div" : "<div xmlns=\"http://www.w3.org/1999/xhtml\">\n                     <h1>Pakningsvedlegg: Informasjon til brukeren</h1>\n                     <h2>Airomir Autohaler 0,1 mg/dose inhalasjonsaerosol, suspensjon</h2>\n                     <h3>salbutamol</h3>\n                  </div>"
        },
        "section" : [{
          "title" : "Les nye gjennom dette pakningsvedlegget fr du begynner  bruke legemidlet. Det inneholder informasjon som er viktig for deg.",
          "code" : {
            "coding" : [{
              "system" : "https://gravitatehealth.eu/section",
              "code" : "rules"
            }]
          },
          "text" : {
            "status" : "additional",
            "div" : "<div xmlns=\"http://www.w3.org/1999/xhtml\">\n                        <h2>Les nye gjennom dette pakningsvedlegget fr du begynner  bruke legemidlet. Det inneholder informasjon som er viktig for deg.</h2>\n                        <div class=\"paragraph\">\n                           <ul>\n                              <li>Ta vare p dette pakningsvedlegget. Du kan f behov for  lese det igjen.</li>\n                              <li>Spr lege eller apotek hvis du har flere sprsml eller trenger mer informasjon.</li>\n                              <li>Dette legemidlet er skrevet ut kun til deg. Ikke gi det videre til andre. Det kan skade dem, selv om de har symptomer p sykdom som ligner dine.</li>\n                              <li>Kontakt lege eller apotek dersom du opplever bivirkninger. Dette gjelder ogs bivirkninger som ikke er nevnt i pakningsvedlegget. Se avsnitt 4.</li>\n                           </ul>\n                        </div>\n                     </div>"
          }
        },
        {
          "title" : "I dette pakningsvedlegget finner du informasjon om:",
          "code" : {
            "coding" : [{
              "system" : "https://gravitatehealth.eu/section",
              "code" : "toc"
            }]
          },
          "text" : {
            "status" : "additional",
            "div" : "<div xmlns=\"http://www.w3.org/1999/xhtml\">\n                        <h2>I dette pakningsvedlegget finner du informasjon om:</h2>\n                        <div class=\"paragraph\">\n                           <ol>\n                              <li>Hva Airomir Autohaler er og hva det brukes mot</li>\n                              <li>Hva du m vite fr du bruker Airomir Autohaler</li>\n                              <li>Hvordan du bruker Airomir Autohaler</li>\n                              <li>Mulige bivirkninger</li>\n                              <li>Hvordan du oppbevarer Airomir Autohaler</li>\n                              <li>Innholdet i pakningen og ytterligere informasjon</li>\n                           </ol>\n                        </div>\n                     </div>"
          }
        },
        {
          "title" : "Hva Airomir Autohaler er og hva det brukes mot",
          "code" : {
            "coding" : [{
              "system" : "https://spor.ema.europa.eu/v1/lists/200000029659/terms/",
              "code" : "200000029895"
            }]
          },
          "text" : {
            "status" : "additional",
            "div" : "<div xmlns=\"http://www.w3.org/1999/xhtml\">\n                        <h2>Hva Airomir Autohaler er og hva det brukes mot</h2>\n                        <div class=\"paragraph\">Salbutamol, som er virkestoffet i Airomir Autohaler, er en selektiv adrenerg beta2-stimulator som virker ved  utvide bronkiene, og derved gjr at du puster lettere.</div>\n                        <div class=\"paragraph\">Airomir Autohaler brukes hos voksne og barn over 4 r mot bronkospasme ved bronkialastma, kronisk bronkitt, emfysem og andre lungesykdommer hvor bronkokonstriksjon er en kompliserende faktor.</div>\n                     </div>"
          }
        },
        {
          "title" : "Hva du m vite fr du bruker Airomir Autohaler",
          "code" : {
            "coding" : [{
              "system" : "https://spor.ema.europa.eu/v1/lists/200000029659/terms/",
              "code" : "200000029896"
            }]
          },
          "text" : {
            "status" : "additional",
            "div" : "<div xmlns=\"http://www.w3.org/1999/xhtml\">\n                        <h2>Hva du m vite fr du bruker Airomir Autohaler</h2>\n                     </div>"
          },
          "section" : [{
            "title" : "Bruk ikke Airomir Autohaler",
            "code" : {
              "coding" : [{
                "system" : "https://spor.ema.europa.eu/v1/lists/200000029659/terms/",
                "code" : "200000029897"
              }]
            },
            "text" : {
              "status" : "additional",
              "div" : "<div xmlns=\"http://www.w3.org/1999/xhtml\">\n                           <h3>Bruk ikke Airomir Autohaler</h3>\n                           <div class=\"paragraph\">\n                              <ul>\n                                 <li>dersom du er allergisk overfor salbutamol eller noen av de andre innholdsstoffene i dette legemidlet (listet opp i avsnitt 6).</li>\n                              </ul>\n                           </div>\n                        </div>"
            }
          },
          {
            "title" : "Advarsler og forsiktighetsregler",
            "code" : {
              "coding" : [{
                "system" : "https://spor.ema.europa.eu/v1/lists/200000029659/terms/",
                "code" : "200000029898"
              }]
            },
            "text" : {
              "status" : "additional",
              "div" : "<div xmlns=\"http://www.w3.org/1999/xhtml\">\n                           <h3>Advarsler og forsiktighetsregler</h3>\n                           <div class=\"paragraph\">Snakk med lege eller apotek fr du bruker Airomir Autohaler.<ul>\n                                 <li>\n                     Hvis du har en stoffskiftesykdom, hyt blodtrykk, diabetes eller hjerte/kar sykdom, skal du nevne dette for din lege.</li>\n                                 <li>Ved hjerte/kar sykdom: Oppsk medisinsk hjelp dersom du opplever brystsmerter eller andre symptomer p forverring av hjertesykdomen</li>\n                                 <li>Hvis du p noe tidspunkt fler at dine vanlige legemidler ikke virker, eller du bruker mer enn avtalt med legen, br du umiddelbart ta kontakt med din lege. Et kende behov for legemiddel kan tyde p at din sykdom forverres.</li>\n                                 <li>Hvis effekten varer mindre enn 3 timer, kontakt din lege.</li>\n                                 <li>Hvis du kontakter en annen lege enn den som har forskrevet Airomir Autohaler, nevn at du bruker Airomir Autohaler.</li>\n                              </ul>\n                           </div>\n                           <div class=\"paragraph\">Informer legen din fr du begynner med dette legemidlet:<ul>\n                                 <li>Dersom du har eller har hatt hjertesykdom, uregelmessig hjerterytme eller angina.</li>\n                              </ul>\n                           </div>\n                        </div>"
            }
          },
          {
            "title" : "Andre legemidler og Airomir Autohaler",
            "code" : {
              "coding" : [{
                "system" : "https://spor.ema.europa.eu/v1/lists/200000029659/terms/",
                "code" : "200000029900"
              }]
            },
            "text" : {
              "status" : "additional",
              "div" : "<div xmlns=\"http://www.w3.org/1999/xhtml\">\n                           <h3>Andre legemidler og Airomir Autohaler</h3>\n                           <div class=\"paragraph\">Snakk med lege eller apotek dersom du bruker, nylig har brukt eller planlegger  bruke andre legemidler.</div>\n                           <div class=\"paragraph\">Det er viktig at din lege vet hvilke andre legemidler du bruker. Spesielt skal du nevne om du bruker vanndrivende midler (diuretika), aminofyllin eller teofyllin, digoksin (hjertemedisin), steroider, avfringsmidler, betablokkere (hjerte og/eller blodtrykksmedisin), disulfiram (for  unng alkholinntak) eller metronidazol (antibiotika). Din lege vil gi deg rd om hvordan du skal forholde deg.</div>\n                        </div>"
            }
          },
          {
            "title" : "Graviditet, amming og fertilitet",
            "code" : {
              "coding" : [{
                "system" : "https://spor.ema.europa.eu/v1/lists/200000029659/terms/",
                "code" : "200000029902"
              }]
            },
            "text" : {
              "status" : "additional",
              "div" : "<div xmlns=\"http://www.w3.org/1999/xhtml\">\n                           <h3>Graviditet, amming og fertilitet</h3>\n                           <div class=\"paragraph\">Snakk med lege eller apotek fr du tar dette legemidlet dersom du er gravid eller ammer, tror at du kan vre gravid eller planlegger  bli gravid.</div>\n                           <div class=\"paragraph\">Hvis du m bruke Airomir Autohaler under graviditet, m dette bare gjres slik din lege har bestemt. Det er begrenset erfaring med bruken av Airomir Autohaler under graviditet.</div>\n                           <div class=\"paragraph\">Det er mulig at barn som ammes kan pvirkes og bli urolige. Bruk av Airomir Autohaler under amming skal bare gjres slik legen har bestemt.</div>\n                        </div>"
            }
          },
          {
            "title" : "Kjring og bruk av maskiner",
            "code" : {
              "coding" : [{
                "system" : "https://spor.ema.europa.eu/v1/lists/200000029659/terms/",
                "code" : "200000029903"
              }]
            },
            "text" : {
              "status" : "additional",
              "div" : "<div xmlns=\"http://www.w3.org/1999/xhtml\">\n                           <h3>Kjring og bruk av maskiner</h3>\n                           <div class=\"paragraph\">Du m bare kjre bil eller utfre risikofylt arbeid nr det er trygt for deg. Legemidler kan pvirke din evne til  kjre bil eller utfre risikofylt arbeid. Les informasjonen i pakningsvedlegget nye. Er du i tvil m du snakke med lege eller apotek.</div>\n                        </div>"
            }
          },
          {
            "title" : "Airomir Autohaler inneholder etanol",
            "code" : {
              "coding" : [{
                "system" : "https://spor.ema.europa.eu/v1/lists/200000029659/terms/",
                "code" : "200000029904"
              }]
            },
            "text" : {
              "status" : "additional",
              "div" : "<div xmlns=\"http://www.w3.org/1999/xhtml\">\n                           <h3>Airomir Autohaler inneholder etanol</h3>\n                           <div class=\"paragraph\">Dette legemidlet inneholder 4,33 mg alkohol (etanol) per dose. Mengden per dose av dette legemidlet tilsvarer mindre enn 0,1 ml l eller 0,04 ml vin.<br/>Mengden alkohol i dette legemidlet er lav og vil ikke gi merkbare effekter.</div>\n                        </div>"
            }
          }]
        },
        {
          "title" : "Hvordan du bruker Airomir Autohaler",
          "code" : {
            "coding" : [{
              "system" : "https://spor.ema.europa.eu/v1/lists/200000029659/terms/",
              "code" : "200000029905"
            }]
          },
          "text" : {
            "status" : "additional",
            "div" : "<div xmlns=\"http://www.w3.org/1999/xhtml\">\n                        <h2>Hvordan du bruker Airomir Autohaler</h2>\n                        <div class=\"paragraph\">Bruk alltid dette legemidlet nyaktig slik legen har fortalt deg. Kontakt lege eller apotek hvis du er usikker<b>. </b>Dosen bestemmes av legen som tilpasser den for deg.</div>\n                        <div class=\"paragraph\">Hvis dosen som vanligvis brukes ikke virker tilfredsstillende og du/barnet ditt fler at dosen m kes for  f effekt, skal du ta kontakt med din lege. Det er viktig at dosen ikke kes p egen hnd.</div>\n                        <span class=\"inline-title\">Den vanlige dosen er:</span>\n                        <div class=\"paragraph\">\n                           <b>Voksne</b>: En til to inhalasjoner ved behov, opp til 3-4 ganger daglig. I alvorlige tilfeller kan dosen kes ytterligere etter avtale med lege.</div>\n                        <div class=\"paragraph\">\n                           <b>Barn fra 12 r</b>: Dosering som for voksne.</div>\n                        <div class=\"paragraph\">\n                           <b>Barn 4-11 r</b>: En inhalasjon ved behov, inntil 4 ganger daglig. I samrd med legen, kan dosen kes til to inhalasjoner hvis det er ndvendig.</div>\n                        <div class=\"paragraph\">\n                           <b>Barn under 4 r</b>: Airomir Autohaler er ikke egnet for barn under 4 r. For yngre barn anbefales i stedet Airomir inhalasjonsaerosol sammen med et inhalasjonskammer.</div>\n                        <span class=\"inline-title\">Fr du bruker Airomir Autohaler frste gang</span>\n                        <div class=\"paragraph\">Fr du bruker Airomir Autohaler frste gang, trykk fire puffer ut i luften. Hvis du ikke har brukt legemidlet p 2 uker, gjr det samme fr du tar en dose.</div>\n                        <span class=\"inline-title\">Flg denne fremgangsmten:</span>\n                        <div class=\"paragraph\">\n                           <img src=\"#13935878\" alt=\"null\"/>\n                        </div>\n                        <div class=\"paragraph\">\n                           <ol>\n                              <li>Ta av beskyttelseshetten p munnstykket ved  trekke ned flippen bak (fig 1).<br/>Rist inhalatoren et par ganger.</li>\n                              <li>Hold munnstykket fra deg slik at puffet gr ut i luften.<br/>Hev hendelen p toppen, slik at den str rett opp.(fig 2).</li>\n                              <li>Utls et puff ved  skyve utlseren i bunden av inhalatoren i pilens retning (mot munnstykket) (fig 3).</li>\n                              <li>Slipp hendelen p toppen ned igjen (fig 4).</li>\n                           </ol>Gjenta punktene 2-4 inntil 4 puff er utlst.<br/>Slipp hendelen p toppen ned, og inhalatoren er klar til bruk.<br/>Husk  sette p beskyttelseshetten etter bruk.</div>\n                        <span class=\"inline-title\">Bruksanvisning</span>\n                        <div class=\"paragraph\">\n                           <ol>\n                              <li>Fjern beskyttelseshetten fra munnstykket og rist inhalatoren.</li>\n                              <li>Hold inhalatoren som vist. Hev hendelen p toppen, slik at den str rett opp.</li>\n                              <li>Pust rolig ut.</li>\n                              <li>Ta munnstykket i munnen slik at leppene slutter tett om dette. Pust rolig inn. Stopp ikke nr du hrer et klikk og kjenner sprayen i munnen, men fortsett til lungene er fylt.</li>\n                              <li>Hold pusten i ca 10 sekunder, eller s lenge som det er komfortabelt. Pust s rolig ut.</li>\n                              <li>Slipp hendelen p toppen ned, og inhalatoren er klar til bruk igjen. Husk  sette p beskyttelseshetten etter bruk.</li>\n                           </ol>\n                           <img src=\"#13935877\" alt=\"null\"/>\n                        </div>\n                        <span class=\"inline-title\">Rengjring</span>\n                        <div class=\"paragraph\">For normal hygiene br munnstykket trkes av med en ren trr klut.</div>\n                        <div class=\"paragraph\">\n                           <b>ADVARSEL: </b>Ikke trykk noe inn i munnstykket, da dette kan delegge bevegelige deler i inhalatoren. Ta ikke inhalatoren i fra hverandre eller putt den i vann.</div>\n                        <span class=\"inline-title\">Merk:</span>\n                        <div class=\"paragraph\">Beholderen er under trykk. Den m ikke brennes eller stikkes hull p, selv nr den er tom.</div>\n                        <span class=\"inline-title\">Nr er Airomir Autohaler tom?</span>\n                        <div class=\"paragraph\">Airomir Autohaler er tom nr du verken kjenner eller hrer at det utlses noen dose.</div>\n                     </div>"
          },
          "entry" : [{
            "reference" : "#13935878"
          },
          {
            "reference" : "#13935877"
          }],
          "section" : [{
            "title" : "Dersom du tar for mye av Airomir Autohaler",
            "code" : {
              "coding" : [{
                "system" : "https://spor.ema.europa.eu/v1/lists/200000029659/terms/",
                "code" : "200000029907"
              }]
            },
            "text" : {
              "status" : "additional",
              "div" : "<div xmlns=\"http://www.w3.org/1999/xhtml\">\n                           <h3>Dersom du tar for mye av Airomir Autohaler</h3>\n                           <div class=\"paragraph\">Symptomer p for hy dose kan vre uttalt hjertebank, skjelving i armer og ben, svimmelhet, hodepine og hyperglykemi.</div>\n                           <div class=\"paragraph\">Spr lege eller apotek dersom du har noen sprsml om bruken av dette legemidlet.</div>\n                        </div>"
            }
          }]
        },
        {
          "title" : "Mulige bivirkninger",
          "code" : {
            "coding" : [{
              "system" : "https://spor.ema.europa.eu/v1/lists/200000029659/terms/",
              "code" : "200000029910"
            }]
          },
          "text" : {
            "status" : "additional",
            "div" : "<div xmlns=\"http://www.w3.org/1999/xhtml\">\n                        <h2>Mulige bivirkninger</h2>\n                        <div class=\"paragraph\">Som alle legemidler kan dette legemidlet forrsake bivirkninger, men ikke alle fr det.<br/>Bivirkninger kan forekomme med flgende hyppighet:</div>\n                        <div class=\"paragraph\">\n                           <div class=\"table-wrapper\">\n                              <table cellspacing=\"0\" class=\"top left bottom right insideH insideV\">  <!-- columnwidth: 50 -->\n                                 <col width=\"26.728913%\"/>\n                                   <!-- columnwidth: 50 -->\n                                 <col width=\"73.271085%\"/>\n                                 <tbody>\n                                    <tr>\n                                       <td class=\"null\">\n                                          <div class=\"paragraph\">Svrt vanlige</div>\n                                       </td>\n                                       <td class=\"null\">\n                                          <div class=\"paragraph\">kan forekomme hos flere enn 1 av 10 brukere</div>\n                                       </td>\n                                    </tr>\n                                    <tr>\n                                       <td class=\"null\">\n                                          <div class=\"paragraph\">Vanlige</div>\n                                       </td>\n                                       <td class=\"null\">\n                                          <div class=\"paragraph\">kan forekomme hos opptil 1 av 10 brukere</div>\n                                       </td>\n                                    </tr>\n                                    <tr>\n                                       <td class=\"null\">\n                                          <div class=\"paragraph\">Mindre vanlige</div>\n                                       </td>\n                                       <td class=\"null\">\n                                          <div class=\"paragraph\">kan forekomme hos opptil 1 av 100 brukere</div>\n                                       </td>\n                                    </tr>\n                                    <tr>\n                                       <td class=\"null\">\n                                          <div class=\"paragraph\">Sjeldne</div>\n                                       </td>\n                                       <td class=\"null\">\n                                          <div class=\"paragraph\">kan forekomme hos opptil 1 av 1000 brukere</div>\n                                       </td>\n                                    </tr>\n                                    <tr>\n                                       <td class=\"null\">\n                                          <div class=\"paragraph\">Svrt sjeldne</div>\n                                       </td>\n                                       <td class=\"null\">\n                                          <div class=\"paragraph\">kan forekomme hos opptil 1 av 10 000 brukere</div>\n                                       </td>\n                                    </tr>\n                                    <tr>\n                                       <td class=\"null\">\n                                          <div class=\"paragraph\">Ikke kjent</div>\n                                       </td>\n                                       <td class=\"null\">\n                                          <div class=\"paragraph\">hyppigheten kan ikke ansls ut ifra tilgjengelige data</div>\n                                       </td>\n                                    </tr>\n                                 </tbody>\n                              </table>\n                           </div>\n                        </div>\n                        <div class=\"paragraph\">\n                           <i>Vanlige:</i>\n                           <ul>\n                              <li>Hjertebank</li>\n                              <li>Rask hjerterytme (takykardi)</li>\n                              <li>Skjelving i muskulatur (tremor)</li>\n                              <li>Hodepine</li>\n                              <li>Svimmelhet</li>\n                           </ul>\n                        </div>\n                        <div class=\"paragraph\">\n                           <i>Sjeldne:</i>\n                           <ul>\n                              <li>Reduserte niver av kalium i blodet (hypokalemi)</li>\n                              <li>Endret adferdsmnster</li>\n                              <li>Irritasjon i munn og svelg</li>\n                              <li>Muskelkramper</li>\n                           </ul>\n                        </div>\n                        <div class=\"paragraph\">\n                           <i>Svrt sjeldne:</i>\n                           <ul>\n                              <li>Forstyrrelse av hjerterytmen (arrytmi)</li>\n                              <li>Overflsomhetsreaksjoner som hevelse i ansikt og svelg (angiodem), elveblest, pusteproblemer (sammentrekninger i bronkiene, bronkospasme), lavt blodtrykk og kollaps</li>\n                           </ul>\n                        </div>\n                        <div class=\"paragraph\">\n                           <i>Ikke kjent:</i>\n                           <ul>\n                              <li>Hyperaktivitet hos barn</li>\n                              <li>Problemer med  sovne</li>\n                           </ul>\n                        </div>\n                        <div class=\"paragraph\">Selv om det ikke er kjent nyaktig hvor ofte det inntreffer, kan noen personer av og til oppleve  f brystsmerter (p grunn av hjerteproblemer som angina). Informer legen din dersom du fr slike symptomer under behandling med Airomir Autohaler<i>, </i>men avbryt ikke behandlingen uten at du har ftt beskjed om  gjre det.</div>\n                        <div class=\"paragraph\">Hvis du umiddelbart etter en inhalasjon blir verre av din astma, skal du ikke ta flere inhalasjoner, men ta kontakt med din lege omgende.</div>\n                     </div>"
          },
          "section" : [{
            "title" : "Melding av bivirkninger",
            "code" : {
              "coding" : [{
                "system" : "https://spor.ema.europa.eu/v1/lists/200000029659/terms/",
                "code" : "200000029912"
              }]
            },
            "text" : {
              "status" : "additional",
              "div" : "<div xmlns=\"http://www.w3.org/1999/xhtml\">\n                           <h3>Melding av bivirkninger</h3>\n                           <div class=\"paragraph\">Kontakt lege, apotek eller sykepleier dersom du opplever bivirkninger, inkludert mulige bivirkninger som ikke er nevnt\ni dette pakningsvedlegget. Du kan ogs melde fra om bivirkninger direkte via meldeskjema som finnes p nettsiden til Statens legemiddelverk: \n<a href=\"https://www.legemiddelverket.no/pasientmelding\" title=\"www.legemiddelverket.no/pasientmelding\">www.legemiddelverket.no/pasientmelding</a>. Ved  melde fra om bivirkninger\nbidrar du med informasjon om sikkerheten ved bruk av dette legemidlet.</div>\n                        </div>"
            }
          }]
        },
        {
          "title" : "Hvordan du oppbevarer Airomir Autohaler",
          "code" : {
            "coding" : [{
              "system" : "https://spor.ema.europa.eu/v1/lists/200000029659/terms/",
              "code" : "200000029913"
            }]
          },
          "text" : {
            "status" : "additional",
            "div" : "<div xmlns=\"http://www.w3.org/1999/xhtml\">\n                        <h2>Hvordan du oppbevarer Airomir Autohaler</h2>\n                        <div class=\"paragraph\">Oppbevares utilgjengelig for barn.</div>\n                        <div class=\"paragraph\">Bruk ikke dette legemidlet etter utlpsdatoen som er angitt p pakningen. Utlpsdatoen er den siste dagen i den angitte mneden.</div>\n                        <div class=\"paragraph\">Airomir Autohaler skal oppbevares ved hyst 25C. Unng  legge aerosolen direkte i solen eller i nrheten av sterk varme. Beholderen er under trykk. Stikk ikke hull p den eller brenn den, selv om den er tom.</div>\n                        <div class=\"paragraph\">Legemidler skal ikke kastes i avlpsvann eller sammen med husholdningsavfall. Spr p apoteket hvordan du skal kaste legemidler som du ikke lenger bruker. Disse tiltakene bidrar til  beskytte miljet.</div>\n                        <div class=\"paragraph\">Klor-fluor-karboner (KFK) gasser har vist seg  pvirke ozonlaget i atmosfren. Din Airomir Autohaler inhalasjonsaerosol inneholder ikke KFK-gasser, men hydro-fluor-alkan (HFA-134a) som drivgass. HFA gasser er utviklet som en erstatning for KFK, fordi de ikke har skadelige effekter p ozonlaget.<br/>Dersom du tidligere har brukt KFK-aerosol, vil du kanskje fle inhalasjonen annerledes. Dette er normalt og har ingen betydning for effekten.</div>\n                     </div>"
          }
        },
        {
          "title" : "Innholdet i pakningen og ytterligere informasjon",
          "code" : {
            "coding" : [{
              "system" : "https://spor.ema.europa.eu/v1/lists/200000029659/terms/",
              "code" : "200000029914"
            }]
          },
          "text" : {
            "status" : "additional",
            "div" : "<div xmlns=\"http://www.w3.org/1999/xhtml\">\n                        <h2>Innholdet i pakningen og ytterligere informasjon</h2>\n                     </div>"
          },
          "section" : [{
            "title" : "Sammensetning av Airomir",
            "code" : {
              "coding" : [{
                "system" : "https://spor.ema.europa.eu/v1/lists/200000029659/terms/",
                "code" : "200000029915"
              }]
            },
            "text" : {
              "status" : "additional",
              "div" : "<div xmlns=\"http://www.w3.org/1999/xhtml\">\n                           <h3>Sammensetning av Airomir</h3>\n                           <div class=\"paragraph\">\n                              <ul>\n                                 <li>Virkestoff er salbutamolsulfat tilsvarende salbutamol 0,1 mg. Hver dose inneholder 0,1 mg salbutamol.</li>\n                                 <li>Andre innholdsstoffer er oljesyre, etanol og drivgass norfluran (HFA-134a, freonfri).</li>\n                              </ul>\n                           </div>\n                        </div>"
            }
          },
          {
            "title" : "Hvordan Airomir ser ut og innholdet i pakningen",
            "code" : {
              "coding" : [{
                "system" : "https://spor.ema.europa.eu/v1/lists/200000029659/terms/",
                "code" : "200000029916"
              }]
            },
            "text" : {
              "status" : "additional",
              "div" : "<div xmlns=\"http://www.w3.org/1999/xhtml\">\n                           <h3>Hvordan Airomir ser ut og innholdet i pakningen</h3>\n                           <div class=\"paragraph\">Pakningen inneholder 200 doser.</div>\n                        </div>"
            }
          },
          {
            "title" : "Innehaver av markedsfringstillatelsen og tilvirker",
            "code" : {
              "coding" : [{
                "system" : "https://spor.ema.europa.eu/v1/lists/200000029659/terms/",
                "code" : "200000029917"
              }]
            },
            "text" : {
              "status" : "additional",
              "div" : "<div xmlns=\"http://www.w3.org/1999/xhtml\">\n                           <h3>Innehaver av markedsfringstillatelsen og tilvirker</h3>\n                           <div class=\"paragraph\">\n                              <i>Innehaver av markedsfringstillatelse</i>\n                              <br/>Teva Sweden AB, Box 1070, SE - 251 10 Helsingborg, Sverige</div>\n                           <div class=\"paragraph\">\n                              <i>Tilvirker</i>\n                              <br/>Norton (Waterford) Limited T/A Teva Pharmaceuticals Ireland<br/>Unit 27/35 IDA Industrial Park, Cork Road, Waterford, Irland</div>\n                           <div class=\"paragraph\">For ytterligere opplysninger om dette legemidlet bes henvendelser rettet til det lokale informasjonskontor for innehaveren av markedsfringstillatelsen.</div>\n                           <div class=\"paragraph\">Teva Norway AS<br/>Kinoveien 3A<br/>1337 Sandvika<br/>Tlf: 66 77 55 90<br/>info@tevapharm.no</div>\n                        </div>"
            }
          },
          {
            "title" : "Dette pakningsvedlegget ble sist oppdatert 01.01.2021",
            "code" : {
              "coding" : [{
                "system" : "https://spor.ema.europa.eu/v1/lists/200000029659/terms/",
                "code" : "200000029919"
              }]
            },
            "text" : {
              "status" : "additional",
              "div" : "<div xmlns=\"http://www.w3.org/1999/xhtml\">\n                           <h3>Dette pakningsvedlegget ble sist oppdatert 01.01.2021</h3>\n                        </div>"
            }
          },
          {
            "title" : "Andre informasjonskilder",
            "code" : {
              "coding" : [{
                "system" : "https://spor.ema.europa.eu/v1/lists/200000029659/terms/",
                "code" : "200000029920"
              }]
            },
            "text" : {
              "status" : "additional",
              "div" : "<div xmlns=\"http://www.w3.org/1999/xhtml\">\n                           <div class=\"paragraph\">Detaljert informasjon om dette legemidlet er tilgjengelig p nettstedet til <a href=\"http://www.felleskatalogen.no/\" title=\"\n               \n                  www.felleskatalogen.no\n               \n            \">\n               \n                  www.felleskatalogen.no\n               \n            </a>\n                           </div>\n                        </div>"
            }
          }]
        }]
      }]
    }
  },
  {
    "fullUrl" : "https://gravitatehealth.eu/fhir/nordic-epi/MedicinalProductDefinition/COPD-MPD-6",
    "resource" : {
      "resourceType" : "MedicinalProductDefinition",
      "id" : "COPD-MPD-6",
      "meta" : {
        "profile" : ["http://hl7.org/fhir/uv/emedicinal-product-info/StructureDefinition/MedicinalProductDefinition-uv-epi",
        "https://gravitatehealth.eu/fhir/nordic-epi-ig/StructureDefinition/Nordic-ePI-MedicinalProductDefinition"]
      },
      "identifier" : [{
        "system" : "http://legemiddelverket.no/FEST/LegemiddelMerkevareID",
        "value" : "ID_0E8C5CA3-25BE-4FC0-BAB9-3070A797BE79"
      }],
      "name" : [{
        "productName" : "Airomir Autohaler inh aerosol, susp 0,1 mg/dose"
      }]
    }
  },
  {
    "fullUrl" : "https://gravitatehealth.eu/fhir/nordic-epi/PackagedProductDefinition/COPD-PPD-9",
    "resource" : {
      "resourceType" : "PackagedProductDefinition",
      "id" : "COPD-PPD-9",
      "meta" : {
        "profile" : ["http://hl7.org/fhir/uv/emedicinal-product-info/StructureDefinition/PackagedProductDefinition-uv-epi",
        "https://gravitatehealth.eu/fhir/nordic-epi-ig/StructureDefinition/Nordic-ePI-PackagedProductDefinition"]
      },
      "identifier" : [{
        "system" : "http://legemiddelverket.no/FEST/LegemiddelPakningID",
        "value" : "ID_1978B8B3-6A7F-4E0B-BC10-677F0FDE0C30"
      },
      {
        "system" : "https://farmalogg.no/varenummer",
        "value" : "529269"
      }],
      "name" : "Airomir Autohaler inh aerosol, susp 0,1 mg/dose",
      "packageFor" : [{
        "reference" : "MedicinalProductDefinition/COPD-MPD-6"
      }]
    }
  }]
}