{
  "resourceType" : "Bundle",
  "id" : "FK589551",
  "meta" : {
    "profile" : ["http://hl7.org/fhir/uv/emedicinal-product-info/StructureDefinition/Bundle-uv-epi"]
  },
  "language" : "no",
  "identifier" : {
    "system" : "https://felleskatalogen.no/vsid",
    "value" : "589551"
  },
  "type" : "document",
  "timestamp" : "2023-05-04T01:01:01Z",
  "entry" : [{
    "fullUrl" : "https://gravitatehealth.eu/fhir/nordic-epi/Composition/589551",
    "resource" : {
      "resourceType" : "Composition",
      "id" : "589551",
      "meta" : {
        "profile" : ["http://hl7.org/fhir/uv/emedicinal-product-info/StructureDefinition/Composition-uv-epi",
        "https://gravitatehealth.eu/fhir/nordic-epi-ig/StructureDefinition/Nordic-ePI-Composition-PIL"]
      },
      "language" : "no",
      "contained" : [{
        "resourceType" : "Binary",
        "id" : "15680795",
        "contentType" : "image/jpeg",
        "data" : ""
      },
      {
        "resourceType" : "Binary",
        "id" : "15680792",
        "contentType" : "image/jpeg",
        "data" : ""
      },
      {
        "resourceType" : "Binary",
        "id" : "15680793",
        "contentType" : "image/jpeg",
        "data" : ""
      },
      {
        "resourceType" : "Binary",
        "id" : "15680794",
        "contentType" : "image/jpeg",
        "data" : ""
      },
      {
        "resourceType" : "Binary",
        "id" : "15680791",
        "contentType" : "image/jpeg",
        "data" : ""
      }],
      "identifier" : [{
        "system" : "https://felleskatalogen.no/vsid",
        "value" : "589551"
      }],
      "status" : "final",
      "type" : {
        "coding" : [{
          "system" : "https://spor.ema.europa.eu/v1/lists/100000155531/terms/",
          "code" : "100000155538"
        }]
      },
      "subject" : [{
        "reference" : "MedicinalProductDefinition/COPD-MPD-62"
      }],
      "date" : "2023-05-04",
      "author" : [{
        "identifier" : {
          "system" : "https://gravitatehealth.eu/organization",
          "value" : "felleskatalogen"
        }
      }],
      "title" : "DuoResp Spiromax Teva inhalasjonspulver 320 g/9 g",
      "section" : [{
        "title" : "Pakningsvedlegg: Informasjon til pasienten",
        "code" : {
          "coding" : [{
            "system" : "https://spor.ema.europa.eu/v1/lists/200000029659/terms/",
            "code" : "200000029894"
          }]
        },
        "text" : {
          "status" : "additional",
          "div" : "<div xmlns=\"http://www.w3.org/1999/xhtml\">\n                     <h1>Pakningsvedlegg: Informasjon til pasienten</h1>\n                     <h2>DuoResp Spiromax 320 mikrogram/9 mikrogram inhalasjonspulver</h2>\n                     <h3>budesonid/formoterolfumaratdihydrat</h3>\n                  </div>"
        },
        "section" : [{
          "title" : "Les nye gjennom dette pakningsvedlegget fr du begynner  bruke dette legemidlet. Det inneholder informasjon som er viktig for deg.",
          "code" : {
            "coding" : [{
              "system" : "https://gravitatehealth.eu/section",
              "code" : "rules"
            }]
          },
          "text" : {
            "status" : "additional",
            "div" : "<div xmlns=\"http://www.w3.org/1999/xhtml\">\n                        <h2>Les nye gjennom dette pakningsvedlegget fr du begynner  bruke dette legemidlet. Det inneholder informasjon som er viktig for deg.</h2>\n                        <div class=\"paragraph\">\n                           <ul>\n                              <li>Ta vare p dette pakningsvedlegget. Du kan f behov for  lese det igjen.</li>\n                              <li>Spr lege, apotek eller sykepleier hvis du har flere sprsml eller trenger mer informasjon.</li>\n                              <li>Dette legemidlet er skrevet ut kun til deg. Ikke gi det videre til andre. Det kan skade dem, selv om de har symptomer p sykdom som ligner dine.</li>\n                              <li>Kontakt lege, apotek eller sykepleier dersom du opplever bivirkninger, inkludert mulige bivirkninger som ikke er nevnt i dette pakningsvedlegget. Se avsnitt 4.</li>\n                           </ul>\n                        </div>\n                     </div>"
          }
        },
        {
          "title" : "I dette pakningsvedlegget finner du informasjon om:",
          "code" : {
            "coding" : [{
              "system" : "https://gravitatehealth.eu/section",
              "code" : "toc"
            }]
          },
          "text" : {
            "status" : "additional",
            "div" : "<div xmlns=\"http://www.w3.org/1999/xhtml\">\n                        <h2>I dette pakningsvedlegget finner du informasjon om:</h2>\n                        <div class=\"paragraph\">\n                           <ol>\n                              <li>Hva DuoResp Spiromax er og hva det brukes mot</li>\n                              <li>Hva du m vite fr du bruker DuoResp Spiromax</li>\n                              <li>Hvordan du bruker DuoResp Spiromax</li>\n                              <li>Mulige bivirkninger</li>\n                              <li>Hvordan du oppbevarer DuoResp Spiromax</li>\n                              <li>Innholdet i pakningen og ytterligere informasjon</li>\n                           </ol>\n                        </div>\n                     </div>"
          }
        },
        {
          "title" : "1. Hva DuoResp Spiromax er og hva det brukes mot",
          "code" : {
            "coding" : [{
              "system" : "https://spor.ema.europa.eu/v1/lists/200000029659/terms/",
              "code" : "200000029895"
            }]
          },
          "text" : {
            "status" : "additional",
            "div" : "<div xmlns=\"http://www.w3.org/1999/xhtml\">\n                        <h2>1. Hva DuoResp Spiromax er og hva det brukes mot</h2>\n                        <div class=\"paragraph\">DuoResp Spiromax inneholder to ulike virkestoffer, budesonid og formoterolfumaratdihydrat.</div>\n                        <div class=\"paragraph\">\n                           <ul>\n                              <li>Budesonid hrer til en gruppe legemidler som kalles kortikosteroider ogs kjent som steroider. De virker gjennom  redusere og forebygge hevelse og betennelse i lungene dine og bidrar til at det blir lettere for deg  puste.</li>\n                              <li>Formoterolfumaratdihydrat tilhrer en gruppe legemidler som kalles langtidsvirkende beta-2-adrenoseptoragonister eller bronkodilatorer. Det virker avslappende p musklene i luftveiene. Dette bidrar til  pne luftveiene og gjr det enklere for deg  puste.</li>\n                           </ul>\n                        </div>\n                        <div class=\"paragraph\">\n                           <b>DuoResp Spiromax er ment kun for bruk hos voksne og ungdom fra 12 r og eldre</b>.</div>\n                        <div class=\"paragraph\">Legen din har forskrevet dette legemidlet for  behandle astma eller kronisk obstruktiv lungesykdom (kols).</div>\n                        <span class=\"inline-title\">Astma</span>\n                        <div class=\"paragraph\">Til bruk for astma vil legen din forskrive DuoResp Spiromax sammen med en separat anfallsinhalator for symptomlindring.</div>\n                        <div class=\"paragraph\">\n                           <ul>\n                              <li>Bruk DuoResp Spiromax hver dag. Dette bidrar til  forhindre astmasymptomer som kortpustethet og hvesing.</li>\n                              <li>Bruk anfallsinhalatoren nr du fr astmasymptomer, for  gjre det enklere  puste igjen.</li>\n                           </ul>\n                        </div>\n                        <div class=\"paragraph\">Ikke bruk DuoResp Spiromax 320/9 mikrogram som anfallsinhalator.</div>\n                        <span class=\"inline-title\">Kronisk obstruktiv lungesykdom (kols)</span>\n                        <div class=\"paragraph\">Kols er en kronisk sykdom i luftveiene til lungene, som ofte er forrsaket av ryking. Symptomene omfatter kortpustethet, hoste, ubehag i brystet og opphosting av slim. DuoResp Spiromax kan ogs, utelukkende hos voksne, brukes til  behandle symptomer p alvorlig kols.</div>\n                     </div>"
          }
        },
        {
          "title" : "2. Hva du m vite fr du bruker DuoResp Spiromax",
          "code" : {
            "coding" : [{
              "system" : "https://spor.ema.europa.eu/v1/lists/200000029659/terms/",
              "code" : "200000029896"
            }]
          },
          "text" : {
            "status" : "additional",
            "div" : "<div xmlns=\"http://www.w3.org/1999/xhtml\">\n                        <h2>2. Hva du m vite fr du bruker DuoResp Spiromax</h2>\n                     </div>"
          },
          "section" : [{
            "title" : "Bruk ikke DuoResp Spiromax:",
            "code" : {
              "coding" : [{
                "system" : "https://spor.ema.europa.eu/v1/lists/200000029659/terms/",
                "code" : "200000029897"
              }]
            },
            "text" : {
              "status" : "additional",
              "div" : "<div xmlns=\"http://www.w3.org/1999/xhtml\">\n                           <h3>Bruk ikke DuoResp Spiromax:</h3>\n                           <div class=\"paragraph\">dersom du er allergisk overfor budesonid, formoterolfumaratdihydrat eller det andre innholdsstoffet i dette legemiddelet (listet opp i avsnitt 6).</div>\n                        </div>"
            }
          },
          {
            "title" : "Advarsler og forsiktighetsregler",
            "code" : {
              "coding" : [{
                "system" : "https://spor.ema.europa.eu/v1/lists/200000029659/terms/",
                "code" : "200000029898"
              }]
            },
            "text" : {
              "status" : "additional",
              "div" : "<div xmlns=\"http://www.w3.org/1999/xhtml\">\n                           <h3>Advarsler og forsiktighetsregler</h3>\n                           <div class=\"paragraph\">Snakk med lege, apotek eller sykepleier fr du bruker DuoResp Spiromax dersom:<ul>\n                                 <li>du har diabetes.</li>\n                                 <li>du har lungebetennelse.</li>\n                                 <li>du har hyt blodtrykk eller du noen gang har hatt et hjerteproblem (inkludert ujevn hjerterytme, svrt hurtig puls, innsnevring av arterier eller hjertesvikt).</li>\n                                 <li>du har problemer med skjoldbruskkjertelen eller binyrer.</li>\n                                 <li>du har lavt kaliumniv i blodet.</li>\n                                 <li>du har alvorlige leverproblemer.</li>\n                                 <li>du regelmessig drikker alkohol.</li>\n                              </ul>\n                           </div>\n                           <div class=\"paragraph\">Hvis du tidligere har tatt steroidtabletter mot astma eller kols, kan det hende at legen reduserer antall tabletter du skal ta nr du starter p DuoResp Spiromax. Hvis du har tatt steroidtabletter via munnen i lang tid, kan det hende at legen vil at du skal ta regelmessige blodprver. Ved reduksjon av dosen steroidtabletter, kan det hende at du generelt sett vil fle deg uvel, selv om symptomene i brystet forbedrer seg. Det kan hende at du opplever symptomer som tett eller rennende nese, svakhet eller ledd- eller muskelsmerter og utslett (eksem). Hvis noen av disse symptomene plager deg, eller hvis symptomer som hodepine, tretthet, kvalme eller oppkast forekommer, ta kontakt med legen din <b>umiddelbart</b>. Det kan hende at du m ta andre legemidler hvis du utvikler symptomer p allergi eller leddbetennelse (artritt). Du skal snakke med legen din hvis du er usikker p om du skal fortsette  bruke DuoResp Spiromax.</div>\n                           <div class=\"paragraph\">Legen kan vurdere  tilfye steroidtabletter til den vanlige behandlingen hvis du har en sykdom, for eksempel betennelse i luftveiene eller fr og etter en operasjon.</div>\n                           <div class=\"paragraph\">Kontakt legen din hvis du opplever tkesyn eller andre synsforstyrrelser.</div>\n                        </div>"
            }
          },
          {
            "title" : "Barn",
            "code" : {
              "coding" : [{
                "system" : "https://spor.ema.europa.eu/v1/lists/200000029659/terms/",
                "code" : "200000029899"
              }]
            },
            "text" : {
              "status" : "additional",
              "div" : "<div xmlns=\"http://www.w3.org/1999/xhtml\">\n                           <h3>Barn</h3>\n                           <div class=\"paragraph\">\n                              <b>Ikke gi dette legemidlet til barn under 12 r</b>.</div>\n                        </div>"
            }
          },
          {
            "title" : "Andre legemidler og DuoResp Spiromax",
            "code" : {
              "coding" : [{
                "system" : "https://spor.ema.europa.eu/v1/lists/200000029659/terms/",
                "code" : "200000029900"
              }]
            },
            "text" : {
              "status" : "additional",
              "div" : "<div xmlns=\"http://www.w3.org/1999/xhtml\">\n                           <h3>Andre legemidler og DuoResp Spiromax</h3>\n                           <div class=\"paragraph\">Snakk med lege eller apotek dersom du bruker, nylig har brukt, eller planlegger  bruke andre legemidler.</div>\n                           <div class=\"paragraph\">Du m spesielt informere lege eller apotek hvis du tar noen av flgende legemidler:<ul>\n                                 <li>Beta-blokkere (som atenolol eller propanolol mot hyt blodtrykk eller hjertesykdom), inkludert yedrper (som timolol for glaukom).</li>\n                                 <li>Oksytosin, som gis til gravide kvinner for  sette i gang fdselen.</li>\n                                 <li>Legemidler mot hurtig eller ujevn hjerterytme (som kinidin, disopyramid, prokainamid og terfenadin).</li>\n                                 <li>Legemidler som digoksin brukes ofte til  behandle hjertesvikt.</li>\n                                 <li>Diuretika som ogs er kjent som vanndrivende midler (som furosemid). Disse brukes til  behandle hyt blodtrykk.</li>\n                                 <li>Steroidtabletter som du tar via munnen (som prednisolon).</li>\n                                 <li>Xantinderivater som ofte brukes til  behandle astma (som teofyllin eller aminofyllin).</li>\n                                 <li>Andre bronkodilatorer (som salbutamol).</li>\n                                 <li>Legemidler mot depresjon (antidepressiva) som nefazondon og amitriptylin (trisyklisk antidepressiva).</li>\n                                 <li>Antidepressiva som hemmere av monoaminoksidase og andre med tilsvarende egenskaper (som antibiotikumet furazolidon og kjemoterapilegemidlet prokarbazin).</li>\n                                 <li>Antipsykotiske fenotiazin-legemidler (som klorpromazin og proklorperazin).</li>\n                                 <li>Legemidler som kalles hiv-protease-hemmere (som ritonavir) for  behandle hiv-infeksjon.</li>\n                                 <li>Legemidler for  behandle infeksjoner (som ketokonazol, itrakonazol, vorikonazol, posekonazol, klaritromycin og telitromycin).</li>\n                                 <li>Legemidler mot Parkinsons sykdom (som levodopa).</li>\n                                 <li>Legemidler mot problemer med skjoldbruskkjertelen (som levotyroksin).</li>\n                              </ul>\n                           </div>\n                           <div class=\"paragraph\">Enkelte legemidler kan ke effekten av DuoResp Spiromax. Legen din kan vurdere at det er ndvendig med tett oppflging hvis du tar denne type legemidler (inkludert enkelte legemidler mot hiv: ritonavir, kobicistat).</div>\n                           <div class=\"paragraph\">Hvis noe av det som str ovenfor gjelder for deg, eller hvis du ikke er sikker, snakk med lege, apotek eller sykepleier fr du bruker DuoResp Spiromax.</div>\n                           <div class=\"paragraph\">Du m ogs informere lege, apotek eller sykepleier hvis du skal gjennomg narkose for en operasjon eller for tannpleie for  bidra til  senke risikoen for interaksjoner med bedvelsesmidler som du fr.</div>\n                        </div>"
            }
          },
          {
            "title" : "Graviditet og amming",
            "code" : {
              "coding" : [{
                "system" : "https://spor.ema.europa.eu/v1/lists/200000029659/terms/",
                "code" : "200000029902"
              }]
            },
            "text" : {
              "status" : "additional",
              "div" : "<div xmlns=\"http://www.w3.org/1999/xhtml\">\n                           <h3>Graviditet og amming</h3>\n                           <div class=\"paragraph\">\n                              <ul>\n                                 <li>Snakk med lege, apotek eller sykepleier fr du tar dette legemidlet dersom du er gravid eller ammer, tror at du kan vre gravid eller planlegger  bli gravid. Du m IKKE bruke dette legemidlet, med mindre du har ftt beskjed om det av legen din.</li>\n                                 <li>Hvis du blir gravid mens du bruker DuoResp Spiromax, IKKE slutt  bruke DuoResp Spiromax, men snakk med legen <b>din umiddelbart.</b>\n                                 </li>\n                              </ul>\n                           </div>\n                        </div>"
            }
          },
          {
            "title" : "Kjring og bruk av maskiner",
            "code" : {
              "coding" : [{
                "system" : "https://spor.ema.europa.eu/v1/lists/200000029659/terms/",
                "code" : "200000029903"
              }]
            },
            "text" : {
              "status" : "additional",
              "div" : "<div xmlns=\"http://www.w3.org/1999/xhtml\">\n                           <h3>Kjring og bruk av maskiner</h3>\n                           <div class=\"paragraph\">DuoResp Spiromax har ingen eller ubetydelig pvirkning p evnen til  kjre bil og bruke maskiner.</div>\n                        </div>"
            }
          },
          {
            "title" : "DuoResp Spiromax inneholder laktose",
            "code" : {
              "coding" : [{
                "system" : "https://spor.ema.europa.eu/v1/lists/200000029659/terms/",
                "code" : "200000029904"
              }]
            },
            "text" : {
              "status" : "additional",
              "div" : "<div xmlns=\"http://www.w3.org/1999/xhtml\">\n                           <h3>DuoResp Spiromax inneholder laktose</h3>\n                           <div class=\"paragraph\">Laktose er en sukkertype som finnes i melk. Dersom legen din har fortalt deg at du har en intoleranse overfor noen sukkertyper, br du snakke med legen din fr du tar dette legemidlet.</div>\n                        </div>"
            }
          }]
        },
        {
          "title" : "3. Hvordan du bruker DuoResp Spiromax",
          "code" : {
            "coding" : [{
              "system" : "https://spor.ema.europa.eu/v1/lists/200000029659/terms/",
              "code" : "200000029905"
            }]
          },
          "text" : {
            "status" : "additional",
            "div" : "<div xmlns=\"http://www.w3.org/1999/xhtml\">\n                        <h2>3. Hvordan du bruker DuoResp Spiromax</h2>\n                        <div class=\"paragraph\">Bruk alltid dette legemidlet nyaktig slik legen eller apoteket har fortalt deg. Kontakt lege, apotek eller sykepleier hvis du er usikker.</div>\n                        <div class=\"paragraph\">\n                           <ul>\n                              <li>Det er viktig  bruke DuoResp Spiromax hver dag, selv om du ikke har symptomer p astma eller kols for yeblikket.</li>\n                           </ul>\n                        </div>\n                        <div class=\"paragraph\">\n                           <ul>\n                              <li>Hvis du bruker DuoResp Spiromax mot astma, vil legen nske  sjekke symptomene dine regelmessig.</li>\n                           </ul>\n                        </div>\n                        <span class=\"inline-title\">Astma</span>\n                        <div class=\"paragraph\">\n                           <b>Bruk DuoResp Spiromax hver dag. </b>Dette bidrar til  forhindre at det forekommer astmasymptomer.</div>\n                        <span class=\"inline-title\">Anbefalt dose:</span>\n                        <div class=\"paragraph\">Voksne (18 r og eldre)<br/>1 inhalasjon (aktivering), to ganger daglig, morgen og kveld.<br/>Legen din kan ke dette til 2 inhalasjoner, to ganger daglig.<br/>Hvis symptomene er godt kontrollert, kan det hende at legen din ber deg om  ta legemidlet n gang daglig.</div>\n                        <div class=\"paragraph\">Ungdom (12 r og eldre)<br/>1 inhalasjon to ganger daglig.</div>\n                        <div class=\"paragraph\">Legen din vil hjelpe deg til  kontrollere astmaen din og vil justere dosen for dette legemidlet til den laveste dosen som kontrollerer astmaen. Hvis legen mener at du trenger en lavere dose enn det som er tilgjengelig fra DuoResp Spiromax, kan legen din forskrive en alternativ inhalator. Denne vil inneholde det samme virkestoffet som DuoResp Spiromax, men med en lavere dose kortikosteroid. Hvis symptomene er godt kontrollert, kan det hende at legen din ber deg om  ta legemidlet n gang daglig. Du m ikke justere antall inhalasjoner legen din har forskrevet, uten at du snakker med legen din frst.</div>\n                        <span class=\"inline-title\">Bruk den separate anfallsinhalatoren til  behandle astmasymptomer nr de oppstr.</span>\n                        <div class=\"paragraph\">Ha alltid med deg anfallsinhalatoren for  bruke den nr du trenger den ved plutselige anfall av kortpustethet og hvesing. Ikke bruk DuoResp Spiromax til  behandle disse astmasymptomene. Det er viktig at du snakker om bruken av DuoResp Spiromax med legen din for  forhindre at astmasymptomer oppstr. Hvor ofte du trener eller hvor ofte du blir utsatt for allergener, kan pvirke behandlingen som er foreskrevet for deg.</div>\n                        <span class=\"inline-title\">Kronisk obstruktiv lungesykdom (kols)</span>\n                        <span class=\"inline-title\">Anbefalt dose:</span>\n                        <div class=\"paragraph\">Kun voksne (18 r og eldre):<br/>1 inhalasjon to ganger daglig, morgen og kveld.</div>\n                        <div class=\"paragraph\">Legen din kan ogs forskrive en annen bronkodilator, for eksempel et antikolinergika (som tiotropium eller ipratropiumbromid) mot kols.</div>\n                        <span class=\"inline-title\">Klargjring av den nye DuoResp Spiromax</span>\n                        <div class=\"paragraph\">Fr du bruker din nye DuoResp Spiromax <b>for frste gang</b>, m du klargjre den for bruk p flgende mte:<ul>\n                              <li>pne folieposen ved  rive opp ved hakket p toppen av folieposen og ta ut inhalatoren.</li>\n                              <li>Kontroller i doseindikatoren og sjekk at det finnes 60 inhalasjoner i inhalatoren.</li>\n                              <li>Bruk etiketten p inhalatoren til  skrive ned pningsdatoen for nr folieposen ble pnet.</li>\n                              <li>Ikke rist inhalatoren fr bruk.</li>\n                           </ul>\n                        </div>\n                        <span class=\"inline-title\">Slik tar du en inhalasjon</span>\n                        <div class=\"paragraph\">Hver gang du har behov for en inhalasjon, flger du anvisningene nedenfor.</div>\n                        <div class=\"paragraph\">\n                           <b>1. Hold inhalatoren </b>med det halvgjennomsiktige vinrde munnstykkedekselet lavest.</div>\n                        <div class=\"paragraph\">\n                           <img src=\"#15680795\" alt=\"null\"/>\n                        </div>\n                        <div class=\"paragraph\">2. pne munnstykkedekselet ved  bye det ned inntil du hrer ett tydelig klikk. Legemidlet er aktivt oppmlt. Inhalatoren er n klar til bruk.</div>\n                        <div class=\"paragraph\">\n                           <img src=\"#15680792\" alt=\"null\"/>\n                        </div>\n                        <div class=\"paragraph\">3. Pust forsiktig ut (s lenge du klarer uten ubehag). Du m ikke puste ut gjennom inhalatoren.<br/>4. Plasser munnstykket mellom tennene. Ikke bit i munnstykket. Lukk leppene rundt munnstykket. Srg for ikke  blokkere luftventilene.</div>\n                        <div class=\"paragraph\">Pust inn gjennom munnen s dypt og hardt du kan.</div>\n                        <div class=\"paragraph\">\n                           <img src=\"#15680793\" alt=\"null\"/>\n                        </div>\n                        <div class=\"paragraph\">5. Ta inhalatoren bort fra munnen. Kanskje merker du en smak nr du tar inhalasjonen.</div>\n                        <div class=\"paragraph\">6. Hold pusten i 10 sekunder eller s lenge du klarer uten ubehag.</div>\n                        <div class=\"paragraph\">\n                           <b>7. Pust deretter forsiktig ut </b>(ikke pust ut gjennom inhalatoren). <b>Lukk munnstykkets hette</b>.</div>\n                        <div class=\"paragraph\">\n                           <img src=\"#15680794\" alt=\"null\"/>\n                        </div>\n                        <div class=\"paragraph\">Hvis du skal ta enda en inhalasjon, gjenta trinn 1 til 7.</div>\n                        <div class=\"paragraph\">Skyll munnen med vann etter hver dose, og spytt det ut.<br/>Ikke prv  ta inhalatoren fra hverandre, fjeren eller vri munnstykkedekselet. Det er festet til inhalatoren og m ikke tas av. Ikke bruk Spiromax hvis den har blitt skadet eller hvis munnstykket har lsnet fra Spiromax. Ikke pne og lukk munnstykkedekselet med mindre du skal bruke inhalatoren.</div>\n                        <span class=\"inline-title\">Rengjring av Spiromax</span>\n                        <div class=\"paragraph\">Hold Spiromax trr og ren.</div>\n                        <div class=\"paragraph\">Ved behov kan du trke av munnstykket p Spiromax etter bruk med en trr klut eller et papirhndkle.</div>\n                        <span class=\"inline-title\">Nr du skal begynne  bruke en ny Spiromax</span>\n                        <div class=\"paragraph\">\n                           <ul>\n                              <li>Doseindikatoren forteller deg hvor mange doser (inhalasjoner) som er igjen i inhalatoren. Den begynner p 60 inhalasjoner nr den er full og slutter p 0 (null) inhalasjoner nr den er tom.</li>\n                           </ul>\n                        </div>\n                        <div class=\"paragraph\">\n                           <img src=\"#15680791\" alt=\"null\"/>\n                        </div>\n                        <div class=\"paragraph\">\n                           <ul>\n                              <li>Doseindikatoren p baksiden av enheten viser antall inhalasjoner som er igjen som partall. Mellomrommene mellom partallene representerer oddetallene for gjenvrende inhalasjoner.</li>\n                              <li>For inhalasjoner som gjenstr fra 20 og nedover til 8, 6, 4, 2 vises tallene i rdt p hvit bakgrunn. Nr tallene blir rde i vinduet, br du ta kontakt med legen din for  anskaffe en ny inhalator.</li>\n                           </ul>\n                        </div>\n                        <div class=\"paragraph\">Merk:<ul>\n                              <li>Munnstykket vil fortsatt klikke selv nr Spiromax er tom.</li>\n                              <li>Hvis du pner og lukker munnstykket uten  ta en inhalasjon, vil doseindikatoren fremdeles registrere dette som en telling. Denne dosen vil beholdes trygt inne i inhalatoren til neste gang du skal ta en dose. Det er umulig  ta ekstra legemiddel eller en dobbelt dose nr du tar n inhalasjon.</li>\n                              <li>Hold munnstykket lukket hele tiden, med mindre du skal bruke inhalatoren.</li>\n                           </ul>\n                        </div>\n                        <span class=\"inline-title\">Viktig informasjon om dine astma- eller kolssymptomer</span>\n                        <div class=\"paragraph\">Hvis du fler at du blir kortpustet eller hveser nr du bruker DuoResp Spiromax, skal du fortsette  bruke DuoResp Spiromax, men oppske legen din s snart som mulig, siden du kan ha behov for ekstra behandling.</div>\n                        <div class=\"paragraph\">Ta kontakt med legen din <b>yeblikkelig </b>hvis:<ul>\n                              <li>Pustingen din blir verre eller du ofte vkner om natten med kortpustethet og hvesing.</li>\n                              <li>Du begynner  kjenne deg tett i brystet om morgenen eller brysttettheten varer lengre enn vanlig.</li>\n                           </ul>\n                        </div>\n                        <div class=\"paragraph\">Disse tegnene kan bety at din astma eller kols ikke kontrolleres tilstrekkelig og at du kan ha behov for en annen eller ekstra behandling <b>yeblikkelig</b>.</div>\n                        <div class=\"paragraph\">Nr astmaen er godt kontrollert kan det hende at legen mener det passer  gradvis redusere dosen av DuoResp Spiromax.</div>\n                     </div>"
          },
          "entry" : [{
            "reference" : "#15680795"
          },
          {
            "reference" : "#15680792"
          },
          {
            "reference" : "#15680793"
          },
          {
            "reference" : "#15680794"
          },
          {
            "reference" : "#15680791"
          }],
          "section" : [{
            "title" : "Dersom du tar for mye av DuoResp Spiromax",
            "code" : {
              "coding" : [{
                "system" : "https://spor.ema.europa.eu/v1/lists/200000029659/terms/",
                "code" : "200000029907"
              }]
            },
            "text" : {
              "status" : "additional",
              "div" : "<div xmlns=\"http://www.w3.org/1999/xhtml\">\n                           <h3>Dersom du tar for mye av DuoResp Spiromax</h3>\n                           <div class=\"paragraph\">Det er viktig at du tar dosene som forskrevet av legen din. Du skal ikke ta mer enn den forskrevne dosen uten  oppske lege.</div>\n                           <div class=\"paragraph\">Dersom du tar mer DuoResp Spiromax enn du skal, ta kontakt med legen, apoteket eller en sykepleier for  f rd.</div>\n                           <div class=\"paragraph\">De vanligste symptomene som kan oppst etterp nr du bruker mer DuoResp Spiromax enn det du skal, er skjelving, hodepine eller hurtig hjerterytme.</div>\n                        </div>"
            }
          },
          {
            "title" : "Dersom du har glemt  ta DuoResp Spiromax",
            "code" : {
              "coding" : [{
                "system" : "https://spor.ema.europa.eu/v1/lists/200000029659/terms/",
                "code" : "200000029908"
              }]
            },
            "text" : {
              "status" : "additional",
              "div" : "<div xmlns=\"http://www.w3.org/1999/xhtml\">\n                           <h3>Dersom du har glemt  ta DuoResp Spiromax</h3>\n                           <div class=\"paragraph\">Hvis du glemmer  ta en dose, skal du ta den s snart du husker det. Likevel skal du ikke ta dobbel dose som erstatning for en glemt dose. Hvis det snart er tid for neste dose, skal du bare ta neste inhalasjon til vanlig tid.</div>\n                           <div class=\"paragraph\">Hvis du blir hvesende eller kortpustet, eller hvis du utvikler andre symptomer p et astmaanfall, <b>bruk anfallsinhalatoren, </b>og oppsk deretter lege.</div>\n                        </div>"
            }
          },
          {
            "title" : "Dersom du avbryter behandling med DuoResp Spiromax",
            "code" : {
              "coding" : [{
                "system" : "https://spor.ema.europa.eu/v1/lists/200000029659/terms/",
                "code" : "200000029909"
              }]
            },
            "text" : {
              "status" : "additional",
              "div" : "<div xmlns=\"http://www.w3.org/1999/xhtml\">\n                           <h3>Dersom du avbryter behandling med DuoResp Spiromax</h3>\n                           <div class=\"paragraph\">Ikke avslutt bruken av inhalatoren uten  fortelle legen din om dette frst.</div>\n                           <div class=\"paragraph\">Spr lege, apotek eller sykepleier dersom du har noen sprsml om bruken av dette legemidlet.</div>\n                        </div>"
            }
          }]
        },
        {
          "title" : "4. Mulige bivirkninger",
          "code" : {
            "coding" : [{
              "system" : "https://spor.ema.europa.eu/v1/lists/200000029659/terms/",
              "code" : "200000029910"
            }]
          },
          "text" : {
            "status" : "additional",
            "div" : "<div xmlns=\"http://www.w3.org/1999/xhtml\">\n                        <h2>4. Mulige bivirkninger</h2>\n                        <div class=\"paragraph\">Som alle legemidler kan dette legemidlet forrsake bivirkninger, men ikke alle fr dem.</div>\n                        <div class=\"paragraph\">\n                           <b>Hvis noe av flgende skjer med deg, stopp bruken av DuoResp Spiromax og snakk med legen din umiddelbart</b>.</div>\n                        <span class=\"inline-title\">Sjeldne bivirkninger: kan forekomme hos opptil 1 av 1000 personer</span>\n                        <div class=\"paragraph\">\n                           <ul>\n                              <li>Hovenhet i ansiktet, spesielt rundt munnen (tungen og/eller halsen og/eller vanskeligheter med  svelge) eller utslett, samtidig som du har vanskeligheter med  puste (angiodem) og/eller plutselig flelse av  svime av. Dette kan bety at du har en allergisk reaksjon, hvilket ogs kan inkludere utslett og kle.</li>\n                              <li>Bronkospasme (innsnevring av musklene i luftveiene, hvilket forrsaker hvesing og kortpustethet). Hvis hvesingen kommer plutselig etter bruk av dette legemidlet, avslutt bruken av dette og snakk med legen din <b>umiddelbart </b>(se nedenfor).</li>\n                           </ul>\n                        </div>\n                        <span class=\"inline-title\">Svrt sjeldne bivirkninger: kan forekomme hos opptil 1 av 10 000 personer</span>\n                        <div class=\"paragraph\">\n                           <ul>\n                              <li>Plutselig, uventet og akutt hvesing og/eller kortpustethet umiddelbart etter bruk av inhalatoren (kalles ogs paradoksal bronkospasme). Hvis et av disse symptomene oppstr, <b>stopp bruken av DuoResp Spiromax med n gang </b>og bruk anfalls-inhalatoren hvis du har en slik. Ta yeblikkelig kontakt med legen din<b>, </b>da det kan hende at du m endre behandling.</li>\n                           </ul>\n                        </div>\n                        <span class=\"inline-title\">Andre mulige bivirkninger.</span>\n                        <span class=\"inline-title\">Vanlige: kan forekomme hos opptil 1 av 10 personer</span>\n                        <div class=\"paragraph\">\n                           <ul>\n                              <li>Hjertebank (tydelige hjerteslag), skjelving eller risting. Hvis disse bivirkningene oppstr, er de vanligvis milde og forsvinner nr du fortsetter  bruke DuoResp Spiromax.</li>\n                              <li>Trske (en soppinfeksjon) i munnen. Dette er mindre sannsynlig hvis du skyller munnen med vann etter bruk av legemidlet.</li>\n                              <li>Lett sr hals, hosting og hes stemme</li>\n                              <li>Hodepine</li>\n                              <li>Lungebetennelse hos kolspasienter.</li>\n                           </ul>\n                        </div>\n                        <div class=\"paragraph\">Snakk med legen din dersom du har noen av flgende symptomer mens du bruker DuoResp Spiromax. Dette kan vre symptomer p en lungebetennelse:<ul>\n                              <li>Feber eller kuldegysninger</li>\n                              <li>kt slimproduksjon, endret farge p slim</li>\n                              <li>kt hoste eller kte pusteproblemer.</li>\n                           </ul>\n                        </div>\n                        <span class=\"inline-title\">Mindre vanlige: kan forekomme hos opptil 1 av 100 personer</span>\n                        <div class=\"paragraph\">\n                           <ul>\n                              <li>Rastlshet, nervsitet, irritertasjon, angst eller sinne</li>\n                              <li>Svnforstyrrelser</li>\n                              <li>Svimmelhet</li>\n                              <li>Kvalme</li>\n                              <li>Hurtig hjerterytme</li>\n                              <li>Blmerker i huden</li>\n                              <li>Muskelkramper</li>\n                              <li>Tkesyn.</li>\n                           </ul>\n                        </div>\n                        <span class=\"inline-title\">Sjeldne:</span>\n                        <div class=\"paragraph\">\n                           <ul>\n                              <li>Lavt kaliumniv i blodet</li>\n                              <li>Ujevn hjerterytme.</li>\n                           </ul>\n                        </div>\n                        <span class=\"inline-title\">Svrt sjeldne:</span>\n                        <div class=\"paragraph\">\n                           <ul>\n                              <li>Depresjon.</li>\n                              <li>Adferdsendringer (spesielt hos barn)</li>\n                              <li>Brystsmerter eller tetthet i brystet (angina pectoris)</li>\n                              <li>Forstyrrelse av hjertets elektriske system (forlengelse av QTc-intervallet). Dette gir ikke symptomer</li>\n                              <li>En kning i sukkermengden (glukosenivet) i blodet nr du tar blodprve</li>\n                              <li>Smaksendringer, som en ubehagelig smak i munnen</li>\n                              <li>Endringer i blodtrykk</li>\n                              <li>Inhalasjonssteroider kan pvirke den normale produksjonen av steroide hormoner i kroppen, spesielt hvis du bruker hye doser over lang tid. Bivirkningene inkluderer:</li>\n                              <li>Endringer i beinmineraltetthet (skjrere knokler)</li>\n                              <li>Gr str (katarakt, fordunkling av linsen i yet)</li>\n                              <li>Grnn str (glaukom, kt trykk i yet)</li>\n                              <li>Vekstforsinkelser hos barn og ungdom</li>\n                              <li>En virkning p binyrene (sm kjertler ved siden av nyrene). Symptomer p binyresuppresjon kan vre tretthet, svakhet, mageproblemer, herunder kvalme, oppkast, smerter og diar, mrkere hud og vekttap.</li>\n                           </ul>\n                        </div>\n                        <div class=\"paragraph\">Disse virkningene opptrer svrt sjelden, og det er mye mindre sannsynlig at det skjer med inhalasjonssteroider enn med kortikosteroidtabletter.</div>\n                     </div>"
          },
          "section" : [{
            "title" : "Melding av bivirkninger",
            "code" : {
              "coding" : [{
                "system" : "https://spor.ema.europa.eu/v1/lists/200000029659/terms/",
                "code" : "200000029912"
              }]
            },
            "text" : {
              "status" : "additional",
              "div" : "<div xmlns=\"http://www.w3.org/1999/xhtml\">\n                           <h3>Melding av bivirkninger</h3>\n                           <div class=\"paragraph\">Kontakt lege, apotek eller sykepleier dersom du opplever bivirkninger. Dette gjelder ogs bivirkninger som ikke er nevnt\ni pakningsvedlegget. Du kan ogs melde fra om bivirkninger direkte via meldeskjema som finnes p nettsiden til Statens legemiddelverk:\n<a href=\"https://www.legemiddelverket.no/pasientmelding\" title=\"www.legemiddelverket.no/pasientmelding\">www.legemiddelverket.no/pasientmelding</a>. Ved  melde fra om bivirkninger\nbidrar du med informasjon om sikkerheten ved bruk av dette legemidlet.</div>\n                        </div>"
            }
          }]
        },
        {
          "title" : "5. Hvordan du oppbevarer DuoResp Spiromax",
          "code" : {
            "coding" : [{
              "system" : "https://spor.ema.europa.eu/v1/lists/200000029659/terms/",
              "code" : "200000029913"
            }]
          },
          "text" : {
            "status" : "additional",
            "div" : "<div xmlns=\"http://www.w3.org/1999/xhtml\">\n                        <h2>5. Hvordan du oppbevarer DuoResp Spiromax</h2>\n                        <div class=\"paragraph\">\n                           <ul>\n                              <li>Oppbevares utilgjengelig for barn.</li>\n                              <li>Bruk ikke dette legemidlet etter utlpsdatoen som er angitt p esken eller p etiketten til inhalatoren etter EXP. Utlpsdatoen er den siste dagen i den angitte mneden.</li>\n                              <li>Oppbevares ved hyst 25C. <b>Hold munnstykkedekselet lukket etter fjerning av folieinnpakningen.</b>\n                              </li>\n                              <li>\n                                 <b>Brukes innen 6 mneder etter pning av folieinnpakningen. </b>Bruk etiketten p inhalatoren til  skrive ned pningsdatoen for nr folieposen ble pnet.</li>\n                              <li>Legemidler skal ikke kastes i avlpsvann eller husholdningsvann. Spr p apoteket hvordan du skal kaste legemidler som du ikke lenger bruker. Disse tiltakene bidrar til  beskytte miljet.</li>\n                           </ul>\n                        </div>\n                     </div>"
          }
        },
        {
          "title" : "6. Innholdet i pakningen og ytterligere informasjon",
          "code" : {
            "coding" : [{
              "system" : "https://spor.ema.europa.eu/v1/lists/200000029659/terms/",
              "code" : "200000029914"
            }]
          },
          "text" : {
            "status" : "additional",
            "div" : "<div xmlns=\"http://www.w3.org/1999/xhtml\">\n                        <h2>6. Innholdet i pakningen og ytterligere informasjon</h2>\n                     </div>"
          },
          "section" : [{
            "title" : "Sammensetning av DuoResp Spiromax",
            "code" : {
              "coding" : [{
                "system" : "https://spor.ema.europa.eu/v1/lists/200000029659/terms/",
                "code" : "200000029915"
              }]
            },
            "text" : {
              "status" : "additional",
              "div" : "<div xmlns=\"http://www.w3.org/1999/xhtml\">\n                           <h3>Sammensetning av DuoResp Spiromax</h3>\n                           <div class=\"paragraph\">\n                              <ul>\n                                 <li>Virkestoffene er budesonid og formoterolfumaratdihydrat. Hver avgitte (inhalerte) dose inneholder 320 mikrogram budesonid og 9 mikrogram formoterolfumaratdihydrat. Dette tilsvarer en oppmlt dose p 400 mikrogram budesonid og 12 mikrogram formoterolfumaratdihydrat.</li>\n                                 <li>Andre innholdsstoffer er laktosemonohydrat, som inneholder melkeproteiner (se DuoResp Spiromax inneholder laktose under avsnitt 2).</li>\n                              </ul>\n                           </div>\n                        </div>"
            }
          },
          {
            "title" : "Hvordan DuoResp Spiromax ser ut og innholdet i pakningen",
            "code" : {
              "coding" : [{
                "system" : "https://spor.ema.europa.eu/v1/lists/200000029659/terms/",
                "code" : "200000029916"
              }]
            },
            "text" : {
              "status" : "additional",
              "div" : "<div xmlns=\"http://www.w3.org/1999/xhtml\">\n                           <h3>Hvordan DuoResp Spiromax ser ut og innholdet i pakningen</h3>\n                           <div class=\"paragraph\">DuoResp Spiromax er et inhalasjonspulver.<br/>Hver DuoResp Spiromax inhalator inneholder 60 inhalasjoner og har en hvit beholder med et halvgjennomsiktig vinrdt munnstykkedeksel.</div>\n                           <div class=\"paragraph\">Pakninger p 1, 2 og 3 inhalatorer. Ikke alle pakningsstrrelser vil ndvendigvis bli markedsfrt.</div>\n                        </div>"
            }
          },
          {
            "title" : "Innehaver av markedsfringstillatelsen og tilvirker",
            "code" : {
              "coding" : [{
                "system" : "https://spor.ema.europa.eu/v1/lists/200000029659/terms/",
                "code" : "200000029917"
              }]
            },
            "text" : {
              "status" : "additional",
              "div" : "<div xmlns=\"http://www.w3.org/1999/xhtml\">\n                           <h3>Innehaver av markedsfringstillatelsen og tilvirker</h3>\n                           <div class=\"paragraph\">Teva Pharma B.V.,<br/>Swensweg 5, 2031GA Haarlem, Nederland.</div>\n                           <span class=\"inline-title\">Tilvirker</span>\n                           <div class=\"paragraph\">Norton (Waterford) Limited<br/>Unit 27/35, IDA Industrial Park, Cork Road, Waterford, Irland</div>\n                           <div class=\"paragraph\">Teva Pharmaceuticals Europe B.V., Swensweg 5, 2031 GA Haarlem, Nederland</div>\n                           <div class=\"paragraph\">Teva Operations Poland Sp. z o.o., Mogilska 80 Str. 31-546 Krakw, Polen</div>\n                           <div class=\"paragraph\">Ta kontakt med den lokale representanten for innehaveren av markedsfringstillatelsen for ytterligere informasjon om dette legemidlet:</div>\n                           <div class=\"paragraph\">\n                              <b>Norge</b>\n                              <br/>Teva Norway AS<br/>Tlf: +47 6677 55 90</div>\n                        </div>"
            }
          },
          {
            "title" : "Dette pakningsvedlegget ble sist oppdatert 04.05.2023",
            "code" : {
              "coding" : [{
                "system" : "https://spor.ema.europa.eu/v1/lists/200000029659/terms/",
                "code" : "200000029919"
              }]
            },
            "text" : {
              "status" : "additional",
              "div" : "<div xmlns=\"http://www.w3.org/1999/xhtml\">\n                           <h3>Dette pakningsvedlegget ble sist oppdatert 04.05.2023</h3>\n                        </div>"
            }
          },
          {
            "title" : "Andre informasjonskilder",
            "code" : {
              "coding" : [{
                "system" : "https://spor.ema.europa.eu/v1/lists/200000029659/terms/",
                "code" : "200000029920"
              }]
            },
            "text" : {
              "status" : "additional",
              "div" : "<div xmlns=\"http://www.w3.org/1999/xhtml\">\n                           <h3>Andre informasjonskilder</h3>\n                           <div class=\"paragraph\">Detaljert informasjon om dette legemidlet er tilgjengelig p nettstedet til Det europeiske legemiddelkontoret (the European Medicines Agency): <a href=\"http://www.ema.europa.eu/\" title=\"\n               \n                  http://www.ema.europa.eu\n               \n            \">\n               \n                  http://www.ema.europa.eu\n               \n            </a>\n                           </div>\n                        </div>"
            }
          }]
        }]
      }]
    }
  },
  {
    "fullUrl" : "https://gravitatehealth.eu/fhir/nordic-epi/MedicinalProductDefinition/COPD-MPD-62",
    "resource" : {
      "resourceType" : "MedicinalProductDefinition",
      "id" : "COPD-MPD-62",
      "meta" : {
        "profile" : ["http://hl7.org/fhir/uv/emedicinal-product-info/StructureDefinition/MedicinalProductDefinition-uv-epi",
        "https://gravitatehealth.eu/fhir/nordic-epi-ig/StructureDefinition/Nordic-ePI-MedicinalProductDefinition"]
      },
      "identifier" : [{
        "system" : "http://legemiddelverket.no/FEST/LegemiddelMerkevareID",
        "value" : "ID_6CDC1AED-5A88-4284-B38E-41BF63E89E06"
      }],
      "name" : [{
        "productName" : "DuoResp Spiromax inh pulv 320 mikrog/9 mikrog"
      }]
    }
  },
  {
    "fullUrl" : "https://gravitatehealth.eu/fhir/nordic-epi/PackagedProductDefinition/COPD-PPD-87",
    "resource" : {
      "resourceType" : "PackagedProductDefinition",
      "id" : "COPD-PPD-87",
      "meta" : {
        "profile" : ["http://hl7.org/fhir/uv/emedicinal-product-info/StructureDefinition/PackagedProductDefinition-uv-epi",
        "https://gravitatehealth.eu/fhir/nordic-epi-ig/StructureDefinition/Nordic-ePI-PackagedProductDefinition"]
      },
      "identifier" : [{
        "system" : "http://legemiddelverket.no/FEST/LegemiddelPakningID",
        "value" : "ID_F56EF708-47CA-498E-859E-440272851203"
      },
      {
        "system" : "https://farmalogg.no/varenummer",
        "value" : "506985"
      }],
      "name" : "DuoResp Spiromax inh pulv 320 mikrog/9 mikrog",
      "packageFor" : [{
        "reference" : "MedicinalProductDefinition/COPD-MPD-62"
      }]
    }
  },
  {
    "fullUrl" : "https://gravitatehealth.eu/fhir/nordic-epi/PackagedProductDefinition/COPD-PPD-86",
    "resource" : {
      "resourceType" : "PackagedProductDefinition",
      "id" : "COPD-PPD-86",
      "meta" : {
        "profile" : ["http://hl7.org/fhir/uv/emedicinal-product-info/StructureDefinition/PackagedProductDefinition-uv-epi",
        "https://gravitatehealth.eu/fhir/nordic-epi-ig/StructureDefinition/Nordic-ePI-PackagedProductDefinition"]
      },
      "identifier" : [{
        "system" : "http://legemiddelverket.no/FEST/LegemiddelPakningID",
        "value" : "ID_2B2268A4-3A78-4486-8843-0DCD42D9DFD6"
      },
      {
        "system" : "https://farmalogg.no/varenummer",
        "value" : "156637"
      }],
      "name" : "DuoResp Spiromax inh pulv 320 mikrog/9 mikrog",
      "packageFor" : [{
        "reference" : "MedicinalProductDefinition/COPD-MPD-62"
      }]
    }
  }]
}