{
  "resourceType" : "Bundle",
  "id" : "FK66491",
  "meta" : {
    "profile" : ["http://hl7.org/fhir/uv/emedicinal-product-info/StructureDefinition/Bundle-uv-epi"]
  },
  "language" : "fi",
  "identifier" : {
    "system" : "https://pharmaca.fi/documentId",
    "value" : "66491"
  },
  "type" : "document",
  "timestamp" : "2023-11-01T01:17:13Z",
  "entry" : [{
    "fullUrl" : "https://gravitatehealth.eu/fhir/nordic-epi/Composition/66491",
    "resource" : {
      "resourceType" : "Composition",
      "id" : "66491",
      "meta" : {
        "profile" : ["http://hl7.org/fhir/uv/emedicinal-product-info/StructureDefinition/Composition-uv-epi",
        "https://gravitatehealth.eu/fhir/nordic-epi-ig/StructureDefinition/Nordic-ePI-Composition-PIL"]
      },
      "language" : "fi",
      "contained" : [{
        "resourceType" : "Binary",
        "id" : "1fe407b4-b4b7-4c7a-8863-4b62c2fe482a",
        "contentType" : "image/png",
        "data" : ""
      },
      {
        "resourceType" : "Binary",
        "id" : "9ec1f27c-2125-4fe9-82c7-af2be64bce54",
        "contentType" : "image/png",
        "data" : ""
      },
      {
        "resourceType" : "Binary",
        "id" : "f6ff794f-715b-49d1-815d-e2dd3de7eb10",
        "contentType" : "image/png",
        "data" : ""
      },
      {
        "resourceType" : "Binary",
        "id" : "37c76372-b1f7-418d-af34-d17faf42e6e0",
        "contentType" : "image/png",
        "data" : ""
      },
      {
        "resourceType" : "Binary",
        "id" : "4013acab-9312-421d-8a9c-ba4243e4838b",
        "contentType" : "image/jpeg",
        "data" : ""
      },
      {
        "resourceType" : "Binary",
        "id" : "7057f609-0553-441b-80af-31daadb9dbb3",
        "contentType" : "image/png",
        "data" : ""
      },
      {
        "resourceType" : "Binary",
        "id" : "5feb7285-ca00-4ddc-b976-50991ce3a4f8",
        "contentType" : "image/jpeg",
        "data" : ""
      },
      {
        "resourceType" : "Binary",
        "id" : "395ee866-834e-42c0-b663-f1f2745174b5",
        "contentType" : "image/png",
        "data" : ""
      }],
      "identifier" : [{
        "system" : "https://pharmaca.fi/documentId",
        "value" : "66491"
      }],
      "status" : "final",
      "type" : {
        "coding" : [{
          "system" : "https://spor.ema.europa.eu/v1/lists/100000155531/terms/",
          "code" : "100000155538"
        }]
      },
      "subject" : [{
        "reference" : "MedicinalProductDefinition/IBD-MPD-67"
      }],
      "date" : "2023-11-01T01:17:13Z",
      "author" : [{
        "identifier" : {
          "system" : "https://gravitatehealth.eu/organization",
          "value" : "Pharmaca Health Intelligence Oy"
        }
      }],
      "title" : "STELARA injektioneste, liuos, esitytetty ruisku 90 mg",
      "section" : [{
        "title" : "Listietoa",
        "code" : {
          "coding" : [{
            "system" : "https://spor.ema.europa.eu/v1/lists/200000029659/terms/",
            "code" : "200000029894"
          }]
        },
        "text" : {
          "status" : "additional",
          "div" : "<div xmlns=\"http://www.w3.org/1999/xhtml\">\n                     <p>\n                        <strong>STELARA 90 mg injektioneste, liuos, esitytetty ruisku</strong>\n                     </p>\n                     <p>ustekinumabi</p>\n                  </div>"
        },
        "section" : [{
          "title" : "Yleisi ohjeita",
          "code" : {
            "coding" : [{
              "system" : "https://gravitatehealth.eu/section",
              "code" : "rules"
            }]
          },
          "text" : {
            "status" : "additional",
            "div" : "<div xmlns=\"http://www.w3.org/1999/xhtml\">\n                        <h2>Yleisi ohjeita</h2>\n                        <p>\n                           <strong>Lue tm pakkausseloste huolellisesti ennen kuin aloitat tmn lkkeen kyttmisen, sill se sislt sinulle trkeit tietoja.</strong>\n                        </p>\n                        <p>\n                           <strong>Tm pakkausseloste on tarkoitettu lkkeen kyttjlle. Jos olet Stelara-hoitoa lapselle antava vanhempi tai hnt hoitava henkil, lue pakkausseloste huolellisesti.</strong>\n                        </p>\n                        <ul>\n                           <li>Silyt tm pakkausseloste. Voit tarvita sit myhemmin.</li>\n                           <li>Jos sinulla on kysyttv, knny lkrin tai apteekkihenkilkunnan puoleen.</li>\n                           <li>Tm lke on mrtty vain sinulle eik sit pid antaa muiden kyttn. Se voi aiheuttaa haittaa muille, vaikka heill olisikin samanlaiset oireet kuin sinulla.</li>\n                           <li>Jos havaitset haittavaikutuksia, kerro niist lkrille tai apteekkihenkilkunnalle. Tm koskee mys sellaisia mahdollisia haittavaikutuksia, joita ei ole mainittu tss pakkausselosteessa. Ks. kohta <a class=\"cross-reference\">Mahdolliset haittavaikutukset</a>.</li>\n                        </ul>\n                     </div>"
          }
        },
        {
          "title" : "Tss pakkausselosteessa kerrotaan",
          "code" : {
            "coding" : [{
              "system" : "https://gravitatehealth.eu/section",
              "code" : "toc"
            }]
          },
          "text" : {
            "status" : "additional",
            "div" : "<div xmlns=\"http://www.w3.org/1999/xhtml\">\n                        <h2>Tss pakkausselosteessa kerrotaan</h2>\n                        <p>1. Mit Stelara on ja mihin sit kytetn</p>\n                        <p>2. Mit sinun on tiedettv, ennen kuin kytt Stelara-injektionestett</p>\n                        <p>3. Miten Stelara-injektionestett kytetn</p>\n                        <p>4. Mahdolliset haittavaikutukset</p>\n                        <p>5. Stelara-injektionesteen silyttminen</p>\n                        <p>6. Pakkauksen sislt ja muuta tietoa</p>\n                     </div>"
          }
        },
        {
          "title" : "Mit valmiste on ja mihin sit kytetn",
          "code" : {
            "coding" : [{
              "system" : "https://spor.ema.europa.eu/v1/lists/200000029659/terms/",
              "code" : "200000029895"
            }]
          },
          "text" : {
            "status" : "additional",
            "div" : "<div xmlns=\"http://www.w3.org/1999/xhtml\">\n                        <h2>Mit valmiste on ja mihin sit kytetn</h2>\n                        <p>\n                           <strong>Mit Stelara on</strong>\n                        </p>\n                        <p>Stelara sislt vaikuttavana aineena ustekinumabia, joka on monoklonaalinen vasta-aine. Monoklonaaliset vasta-aineet ovat valkuaisaineita, jotka tunnistavat ja sitoutuvat tarkoin mrttyihin valkuaisaineisiin elimistss.</p>\n                        <p>Stelara kuuluu lkeryhmn, jota kutsutaan immunosuppressanteiksi. Nm lkkeet toimivat heikentmll osittain immuunijrjestelm.</p>\n                        <p>\n                           <strong>Mihin Stelara-valmistetta kytetn</strong>\n                        </p>\n                        <p>Stelara-valmistetta kytetn seuraavien tulehdussairauksien hoitoon:</p>\n                        <ul>\n                           <li>aikuisten ja vhintn 6-vuotiaiden lasten liskpsoriaasi</li>\n                           <li>aikuisten nivelpsoriaasi</li>\n                           <li>aikuisten keskivaikea tai vaikea Crohnin tauti</li>\n                           <li>aikuisten keskivaikea tai vaikea haavainen paksusuolitulehdus.</li>\n                        </ul>\n                        <p>\n                           <strong>Liskpsoriaasi</strong>\n                        </p>\n                        <p>Liskpsoriaasi on ihosairaus, joka aiheuttaa ihossa ja kynsiss esiintyvn tulehduksen. Stelara lievitt tulehdusta ja sairauden muita oireita.</p>\n                        <p>Stelara-valmistetta kytetn aikuisille, joilla on kohtalainen tai vaikea liskpsoriaasi, ja jotka eivt voi kytt siklosporiinia, metotreksaattia tai valohoitoa, tai kun nm hoitomenetelmt eivt ole tehonneet.</p>\n                        <p>Stelara-valmistetta kytetn vhintn 6-vuotiaille lapsille ja nuorille, joilla on kohtalainen tai vaikea liskpsoriaasi ja jotka eivt sied valohoitoa tai muita systeemisi hoitoja tai kun nm hoitomenetelmt eivt ole tehonneet.</p>\n                        <p>\n                           <strong>Nivelpsoriaasi</strong>\n                        </p>\n                        <p>Nivelpsoriaasi on niveliin vaikuttava tulehdussairaus, jonka yhteydess esiintyy yleens psoriaasia. Jos sinulla on aktiivinen nivelpsoriaasi, saat ensin muita lkkeit. Jos hoito ei tehoa sinuun riittvn hyvin, sinulle voidaan mrt Stelara-valmistetta</p>\n                        <ul>\n                           <li>taudin oireiden ja merkkien vhentmiseksi</li>\n                           <li>toimintakyvyn parantamiseksi</li>\n                           <li>nivelvaurioiden hidastamiseksi.</li>\n                        </ul>\n                        <p>\n                           <strong>Crohnin tauti</strong>\n                        </p>\n                        <p>Crohnin tauti on suoliston tulehdussairaus. Jos sinulla on Crohnin tauti, sinulle annetaan ensin muita lkkeit. Jos et saa riittv hoitovastetta tai nm lkkeet eivt sovi sinulle, sinulle saatetaan antaa Stelara-hoitoa sairauden oireiden ja lydsten vhentmiseen.</p>\n                        <p>\n                           <strong>Haavainen paksusuolitulehdus</strong>\n                        </p>\n                        <p>Haavainen paksusuolitulehdus on suoliston tulehdussairaus. Jos sinulla on haavainen paksusuolitulehdus, sinulle annetaan ensin muita lkkeit. Jos et saa riittv hoitovastetta tai nm lkkeet eivt sovi sinulle, sinulle saatetaan antaa Stelara-hoitoa sairauden oireiden ja lydsten vhentmiseen.</p>\n                     </div>"
          }
        },
        {
          "title" : "Mit sinun on tiedettv ennen valmisteen kytt",
          "code" : {
            "coding" : [{
              "system" : "https://spor.ema.europa.eu/v1/lists/200000029659/terms/",
              "code" : "200000029896"
            }]
          },
          "text" : {
            "status" : "additional",
            "div" : "<div xmlns=\"http://www.w3.org/1999/xhtml\">\n                        <h2>Mit sinun on tiedettv ennen valmisteen kytt</h2>\n                        <p>\n                           <strong>l kyt Stelara-injektionestett</strong>\n                        </p>\n                        <ul>\n                           <li>\n                              <strong>jos olet allerginen ustekinumabille</strong> tai tmn lkkeen jollekin muulle aineelle (lueteltu kohdassa <a class=\"cross-reference\">Pakkauksen sislt ja muuta tietoa</a>)</li>\n                           <li>\n                              <strong>jos sinulla on aktiivinen tulehdus</strong>, jonka lkri katsoo olevan merkitsev.</li>\n                        </ul>\n                        <p>Jos olet epvarma siit, koskeeko jokin edell mainituista sinua, knny lkrin tai apteekin puoleen, ennen kuin kytt Stelara-hoitoa.</p>\n                        <p>\n                           <strong>Varoitukset ja varotoimet</strong>\n                        </p>\n                        <p>Keskustele lkrin tai apteekkihenkilkunnan kanssa ennen kuin kytt Stelara-valmistetta.</p>\n                        <p>Lkri tarkistaa kuinka hyvin voit ennen jokaista hoitokertaa. Huolehdi siit, ett kerrot lkrille kaikista sairauksistasi ennen jokaista hoitokertaa. Kerro lkrille mys, jos olet skettin ollut sellaisen henkiln lheisyydess, jolla saattaa olla tuberkuloosi. Lkri tutkii sinut ja tekee tuberkuloositestin ennen Stelara-hoidon antamista. Jos sinulla on lkrin arvion mukaan tuberkuloosiin sairastumisen vaara, saatat saada tuberkuloosilkityst.</p>\n                        <p>\n                           <strong>Pid silmll vakavia haittavaikutuksia</strong>\n                        </p>\n                        <p>Stelara voi aiheuttaa vakavia haittavaikutuksia, kuten allergisia reaktioita ja tulehduksia. Sinun tulee seurata tiettyj merkkej sairaudesta, kun kytt Stelara-valmistetta. Katso &quot;Vakavat haittavaikutukset&quot; kohta <a class=\"cross-reference\">Mahdolliset haittavaikutukset</a>, jossa on tydellinen luettelo nist haittavaikutuksista.</p>\n                        <p>\n                           <strong>Ennen kuin kytt Stelara-valmistetta, kerro lkrille:</strong>\n                        </p>\n                        <ul>\n                           <li>\n                              <strong>jos sinulla on joskus ollut allerginen reaktio Stelara-valmisteelle</strong>. Tarkista asia lkrilt, jos olet epvarma.</li>\n                           <li>\n                              <strong>jos sinulla on tai on joskus ollut jonkinlainen syp</strong> - sill immunosuppressiiviset lkkeet, kuten Stelara, heikentvt immuunijrjestelmn toimintaa. Tm saattaa list syvn vaaraa.</li>\n                           <li>\n                              <strong>jos olet saanut psoriaasiin hoitoa muilla biologisilla lkkeill (biologisesta lhteest tuotettu lke, joka annetaan yleens injektiona), </strong>syvn riski voi olla tavanomaista suurempi</li>\n                           <li>\n                              <strong>jos sinulla on tai on hiljattain ollut jokin tulehdus</strong>\n                           </li>\n                           <li>\n                              <strong>jos sinulla on uusia tai muuttuneita ihomuutoksia</strong> psoriaasialueilla tai terveell iholla</li>\n                           <li>\n                              <strong>jos olet joskus saanut allergisen reaktion luonnonkumista tai Stelara injektiosta</strong>  tmn lkevalmisteen pakkausmateriaalissa on luonnonkumia, joka voi aiheuttaa vakavia allergisia reaktioita henkilille, jotka ovat yliherkki luonnonkumille. Katso kohta <a class=\"cross-reference\">Mahdolliset haittavaikutukset</a> Pid silmll vakavia haittavaikutuksia, Allergiset reaktiot.</li>\n                           <li>\n                              <strong>jos saat jotain muuta psoriaasi- ja/tai nivelpsoriaasihoitoa</strong> - kuten muita immunosuppressiivisia lkkeit tai valohoitoa (sinua hoidetaan erityisell ultraviolettivalolla eli UV-valolla). Nm hoidot voivat mys heikent osittain immuunijrjestelm. Tllaisten hoitojen samanaikaista kytt Stelaran kanssa ei ole tutkittu. On kuitenkin mahdollista, ett tm saattaa suurentaa heikentyneeseen immuunijrjestelmn liittyvien sairauksien vaaraa.</li>\n                           <li>\n                              <strong>jos saat tai olet joskus saanut injektioita allergian hoitoon</strong>  ei tiedet, vaikuttaako Stelara-valmiste nihin</li>\n                           <li>\n                              <strong>jos olet yli 65-vuotias</strong>  saatat olla herkempi saamaan infektioita.</li>\n                        </ul>\n                        <p>Jos et ole varma, koskeeko jokin edell mainituista sinua, kysy asiasta lkrilt tai apteekkihenkilstlt ennen Stelara-valmisteen kytt.</p>\n                        <p>Joillekin potilaille on ilmennyt ustekinumabihoidon aikana lupuksen kaltaisia reaktioita, mukaan lukien ihon lupus tai lupuksen kaltainen oireyhtym. Ota heti yhteytt lkriin, jos ihollesi ilmaantuu punaista, hilseilev, koholla olevaa, toisinaan tummempireunaista ihottumaa auringolle altistuneilla alueilla, tai jos siihen liittyy nivelkipua.</p>\n                        <p>\n                           <strong>Sydninfarkti ja aivohalvaus</strong>\n                        </p>\n                        <p>Stelara-hoitoa saaneilla psoriaasipotilailla on tutkimuksessa havaittu sydninfarkteja ja aivohalvauksia. Lkri tutkii sinulta snnllisin vliajoin sydnsairauksien ja aivohalvauksen riskitekijt varmistaakseen, ett ne hoidetaan asianmukaisesti. Hakeudu heti lkriin, jos sinulle ilmaantuu kipua rintakehn, heikotusta tai poikkeavia tuntemuksia toiselle puolelle kehoa, kasvojen roikkumista tai puheeseen tai nkkykyyn liittyvi poikkeavuuksia.</p>\n                        <p>\n                           <strong>Lapset ja nuoret</strong>\n                        </p>\n                        <p>Stelara-valmistetta ei suositella alle 6-vuotiaille psoriaasia sairastaville lapsille eik alle 18-vuotiaille nivelpsoriaasia, Crohnin tautia tai haavaista paksusuolitulehdusta sairastaville lapsille, koska sit ei ole tutkittu tss ikryhmss.</p>\n                        <p>\n                           <strong>Muut lkevalmisteet, rokotteet ja Stelara</strong>\n                        </p>\n                        <p>Kerro lkrille tai apteekkihenkilkunnalle:</p>\n                        <ul>\n                           <li>jos parhaillaan kytt, olet skettin kyttnyt tai saatat kytt muita lkkeit</li>\n                           <li>jos olet skettin saanut rokotuksen tai suunnittelet rokotuksen ottamista. Tietyntyyppisi rokotteita (elvi taudinaiheuttajia sisltvi rokotteita) ei saa antaa Sterala-valmisteen kytn aikana.</li>\n                           <li>jos olet saanut Stelara-valmistetta raskauden aikana, kerro Stelara-hoidosta vauvasi lkrille ennen kuin vauva saa mitn rokotteita, mukaan lukien elvi taudinaiheuttajia sisltvi rokotteita, kuten BCG-rokotetta (kytetn ehkisemn tuberkuloosia). Jos olet saanut Stelara-hoitoa raskauden aikana, elvi taudinaiheuttajia sisltvi rokotteita ei suositella vauvalle kuuteen kuukauteen syntymn jlkeen, paitsi jos vauvan lkri suosittelee toisin.</li>\n                        </ul>\n                        <p>\n                           <strong>Raskaus ja imetys</strong>\n                        </p>\n                        <ul>\n                           <li>Stelara-valmisteen kytt on suositeltavaa vltt raskauden aikana. Stelara-valmisteen vaikutuksia raskauteen ei tunneta. Jos olet nainen, joka voi tulla raskaaksi, sinun on vltettv raskaaksi tulemista ja kytettv tehokasta ehkisy Stelara-hoidon aikana ja vhintn 15 viikon ajan viimeisen Stelara-annoksen jlkeen.</li>\n                           <li>Jos olet raskaana tai imett, epilet olevasi raskaana tai jos suunnittelet lapsen hankkimista, kerro siit lkrille.</li>\n                           <li>Stelara psee istukan kautta sikin. Jos olet saanut Stelara-hoitoa raskauden aikana, vauvallasi saattaa olla suurentunut riski saada jokin infektio.</li>\n                           <li>Jos olet saanut Stelara-hoitoa raskauden aikana, siit on trke kertoa vauvaa hoitaville lkreille ja muille terveydenhoidon ammattilaisille ennen kuin vauva saa mitn rokotteita. Jos olet saanut Stelara-hoitoa raskauden aikana, elvi taudinaiheuttajia sisltvi rokotteita, kuten BCG-rokotetta (kytetn ehkisemn tuberkuloosia), ei suositella vauvalle kuuteen kuukauteen syntymn jlkeen, paitsi jos vauvan lkri suosittelee toisin.</li>\n                           <li>Hyvin pieni mri ustekinumabia saattaa eritty rintamaitoon. Jos imett tai suunnittelet imettmist, kerro siit lkrille. Lkri ptt kanssasi imetyksest tai Stelara-valmisteen kytst, sill Stelaraa ei saa kytt imetyksen aikana.</li>\n                        </ul>\n                        <p>\n                           <strong>Ajaminen ja koneiden kytt</strong>\n                        </p>\n                        <p>Stelaralla ei ole haitallista vaikutusta ajokykyyn ja koneidenkyttkykyyn.</p>\n                     </div>"
          }
        },
        {
          "title" : "Miten valmistetta kytetn",
          "code" : {
            "coding" : [{
              "system" : "https://spor.ema.europa.eu/v1/lists/200000029659/terms/",
              "code" : "200000029905"
            }]
          },
          "text" : {
            "status" : "additional",
            "div" : "<div xmlns=\"http://www.w3.org/1999/xhtml\">\n                        <h2>Miten valmistetta kytetn</h2>\n                        <p>Stelara on tarkoitettu kytettvksi niiden sairauksien hoitoon perehtyneen lkrin ohjauksessa ja seurannassa, joihin Stelara-valmiste on tarkoitettu.</p>\n                        <p>Kyt tt lkett juuri siten kuin lkri on mrnnyt. Tarkista ohjeet lkrilt, jos olet epvarma. Keskustele lkrin kanssa siit, milloin sinun on otettava pistokset ja tultava seurantakynneille lkrin vastaanotolle.</p>\n                        <p>\n                           <strong>Kuinka paljon Stelara-injektionestett pistetn</strong>\n                        </p>\n                        <p>Lkri ptt, miten paljon Stelara-valmistetta tarvitset ja miten pitkn.</p>\n                        <p>\n                           <strong>Vhintn 18-vuotiaat aikuiset</strong>\n                        </p>\n                        <p>\n                           <strong>Psoriaasi ja nivelpsoriaasi</strong>\n                        </p>\n                        <ul>\n                           <li>Suositeltu aloitusannos on 45 mg Stelara-valmistetta. Yli 100 kilogramman (kg) painoiset potilaat voivat aloittaa hoidon 90 mg:n annoksella 45 mg annoksen sijaan.</li>\n                           <li>Aloitusannoksen jlkeen saat seuraavan annoksen 4 viikon kuluttua ja sen jlkeen aina 12 viikon vlein. Jatkoannokset ovat yleens yht suuria kuin aloitusannos.</li>\n                        </ul>\n                        <p>\n                           <strong>Crohnin tauti tai haavainen paksusuolitulehdus</strong>\n                        </p>\n                        <ul>\n                           <li>Lkri antaa ensimmisen Stelara-annoksen noin 6 mg/kg tiputuksena ksivarren laskimoon (suonensisinen infuusio). Aloitusannoksen jlkeen saat seuraavan 90 mg:n Stelara-annoksen pistoksena ihon alle (subkutaanisesti) 8 viikon kuluttua ja sen jlkeen aina 12 viikon vlein.</li>\n                           <li>Joillekin potilaille saatetaan antaa ensimmisen ihon alle annetun injektion jlkeen 90 mg Stelaraa 8 viikon vlein. Lkri ptt, milloin seuraava annos annetaan.</li>\n                        </ul>\n                        <p>\n                           <strong>Vhintn 6-vuotiaat lapset ja nuoret</strong>\n                        </p>\n                        <p>\n                           <strong>Psoriaasi</strong>\n                        </p>\n                        <ul>\n                           <li>Lkri laskee sinulle sopivan annoksen sek injektiona annettavan Stelara-tilavuuden, jotta saat oikean annoksen. Sinulle sopiva annos mrytyy sen mukaan, mink verran painat kunkin annoksen antoajankohtana.</li>\n                           <li>Jos lapsi tarvitsee pienemmn kuin tyden 45 mg:n annoksen, saatavana on 45 mg:n injektiopulloja.</li>\n                           <li>Jos painat alle 60 kg, suositeltu Stelara-annos on 0,75 mg/painokg.</li>\n                           <li>Jos painat 60100 kg, suositeltu Stelara-annos on 45 mg.</li>\n                           <li>Jos painat yli 100 kg, suositeltu Stelara-annos on 90 mg.</li>\n                           <li>Kun hoito on aloitettu, seuraava annos annetaan 4 viikon kuluttua ja sen jlkeen aina 12 viikon vlein.</li>\n                        </ul>\n                        <p>\n                           <strong>Miten Stelara annetaan</strong>\n                        </p>\n                        <ul>\n                           <li>Stelara annetaan pistoksena ihon alle. Hoidon alussa lkri tai hoitaja saattaa antaa Stelara-pistoksen sinulle.</li>\n                           <li>Saatat kuitenkin ptt yhdess lkrin kanssa, ett voit pist Stelara-injektion itse. Sinulle neuvotaan tllin, miten Stelara-injektio pistetn.</li>\n                           <li>Katso ohjeet, kuinka Stelara-injektio pistetn kohdasta Ohjeet valmisteen antoon tmn pakkausselosteen lopusta.</li>\n                        </ul>\n                        <p>Knny lkrin puoleen, jos sinulla on kysymyksi injektion pistmisest itse.</p>\n                        <p>\n                           <strong>Jos kytt enemmn Stelara-injektionestett kuin sinun pitisi</strong>\n                        </p>\n                        <p>Jos olet ottanut tai sinulle on annettu liikaa Stelara-injektionestett, ota heti yhteys lkriin tai apteekkihenkilstn. Ota aina ulkopakkaus mukaasi, vaikka se olisi tyhj.</p>\n                        <p>\n                           <strong>Jos unohdat ottaa Stelara-pistoksen</strong>\n                        </p>\n                        <p>Jos unohdat annoksen, ota yhteys lkriin tai apteekkihenkilstn. l ota kaksinkertaista annosta korvataksesi unohtamasi annoksen.</p>\n                        <p>\n                           <strong>Jos lopetat Stelara-injektionesteen kytn</strong>\n                        </p>\n                        <p>Stelara-injektionesteen kytn lopettaminen ei ole vaarallista. Jos lopetat hoidon, oireet saattavat kuitenkin uusiutua.</p>\n                        <p>Jos sinulla on kysymyksi tmn lkkeen kytst, knny lkrin tai apteekkihenkilkunnan puoleen.</p>\n                     </div>"
          }
        },
        {
          "title" : "Mahdolliset haittavaikutukset",
          "code" : {
            "coding" : [{
              "system" : "https://spor.ema.europa.eu/v1/lists/200000029659/terms/",
              "code" : "200000029910"
            }]
          },
          "text" : {
            "status" : "additional",
            "div" : "<div xmlns=\"http://www.w3.org/1999/xhtml\">\n                        <h2>Mahdolliset haittavaikutukset</h2>\n                        <p>Kuten kaikki lkkeet, tmkin lke voi aiheuttaa haittavaikutuksia. Kaikki eivt kuitenkaan niit saa.</p>\n                        <p>\n                           <strong>Vakavat haittavaikutukset</strong>\n                        </p>\n                        <p>Osalla potilaista haittavaikutukset voivat olla vakavia ja vaatia kiireellist hoitoa.</p>\n                        <p>\n                           <strong>Allergiset reaktiot  nm saattavat vaatia kiireellist lkrinhoitoa. Kerro lkrille tai hakeudu ensiapuun vlittmsti, jos havaitset jonkin seuraavista oireista.</strong>\n                        </p>\n                        <ul>\n                           <li>Vakavat allergiset reaktiot (anafylaksia) ovat harvinaisia potilailla, jotka kyttvt Stelara-valmistetta (esiintyy korkeintaan yhdell henkilll 1 000:sta). Oireita ovat:\n\t<ul>\n                                 <li>hengitys- tai nielemisvaikeudet</li>\n                                 <li>alhainen verenpaine, joka voi aiheuttaa huimausta tai pyrrytyst</li>\n                                 <li>kasvojen, huulten, suun tai nielun turpoaminen.</li>\n                              </ul>\n                           </li>\n                           <li>Tavallisia merkkej allergisesta reaktiosta ovat ihottuma ja nokkosihottuma (esiintyy korkeintaan yhdell henkilll 100:sta).</li>\n                        </ul>\n                        <p>\n                           <strong>Ustekinumabia saaneilla potilailla on harvinaisissa tapauksissa raportoitu allergisia keuhkoreaktioita ja keuhkotulehdusta. Kerro heti lkrille, jos sinulle kehittyy oireita, kuten ysk, hengenahdistusta ja kuumetta.</strong>\n                        </p>\n                        <p>Jos sinulla on vakava allerginen reaktio, lkri voi ptt, ett sinun ei tule jatkaa Stelara-valmisteen kytt.</p>\n                        <p>\n                           <strong>Infektiot - nm saattavat vaatia kiireellist lkrinhoitoa. Ota heti yhteytt lkriin, jos havaitset jonkin seuraavista oireista.</strong>\n                        </p>\n                        <ul>\n                           <li>Infektiot nenss tai kurkussa sek nuhakuume ovat yleisi (esiintyy korkeintaan 1 henkilll 10:st).</li>\n                           <li>Rintakehn infektiot ovat melko harvinaisia (esiintyy korkeintaan 1 henkilll 100:sta).</li>\n                           <li>Ihonalainen tulehdus (&quot;selluliitti&quot;) on melko harvinainen (esiintyy korkeintaan 1 henkilll 100:sta).</li>\n                           <li>Vyruusu (ernlainen kivulias rakkulainen ihottuma) on melko harvinainen (esiintyy korkeintaan 1 henkilll 100:sta).</li>\n                        </ul>\n                        <p>Stelara saattaa heikent elimistsi kyky taistella infektioita vastaan. Jotkut infektiot voivat kehitty vakaviksi. Tllaisia voivat olla virusten, sienten, bakteerien (mukaan lukien tuberkuloosi) tai loisten aiheuttamat infektiot, mukaan lukien infektiot, joita ilmaantuu pasiassa henkilille, joiden immuunijrjestelm on heikentynyt (opportunistiset infektiot). Ustekinumabihoitoa saaneilla potilailla on raportoitu opportunistisia infektioita aivoissa (aivotulehdus, aivokalvotulehdus), keuhkoissa ja silmss.</p>\n                        <p>Sinun tulee olla varuillasi infektion merkkien varalta, kun kytt Stelara-valmistetta. Nit ovat:</p>\n                        <ul>\n                           <li>kuume, flunssan kaltaiset oireet, yhikoilu, painonlasku</li>\n                           <li>vsymys tai hengenahdistus, ysk, joka ei parane</li>\n                           <li>kuumottava, punainen ja kipe iho tai kivulias rakkulainen ihottuma</li>\n                           <li>kirvely virtsaamisen yhteydess</li>\n                           <li>ripuli</li>\n                           <li>nkhirit tai nnmenetys</li>\n                           <li>pnsrky, niskajykkyys, valoherkkyys, pahoinvointi tai sekavuus.</li>\n                        </ul>\n                        <p>Ota yhteytt lkriin heti, jos huomaat jonkin nist infektion oireista. Ne saattavat olla oireita sellaisista infektioista, kuten rintakehn infektioista, ihoinfektioista, vyruususta tai opportunistisista infektioista, joista voi aiheutua vakavia jlkitauteja. Ota yhteytt lkriin, jos sinulla on infektio, joka ei parane, tai joka uusiutuu jatkuvasti. Lkri saattaa ptt, ett sinun ei pid kytt Stelara-valmistetta ennen kuin infektio on parantunut. Kerro mys lkrille, jos sinulla on avoimia haavoja tai haavaumia, koska ne voivat tulehtua.</p>\n                        <p>\n                           <strong>Ihon kesiminen  punoituksen ja kesimisen lisntyminen laajoilla kehon ihoalueilla saattaa olla vakavien ihosairauksien, erytrodermisen psoriaasin tai eksfoliatiivisen dermatiitin, oire. Jos huomaat tllaisia oireita, ota heti yhteytt lkriin.</strong>\n                        </p>\n                        <p>\n                           <strong>Muut haittavaikutukset</strong>\n                        </p>\n                        <p>\n                           <strong>Yleiset haittavaikutukset </strong>(esiintyy korkeintaan 1 kyttjll 10:st)</p>\n                        <ul>\n                           <li>ripuli</li>\n                           <li>pahoinvointi</li>\n                           <li>oksentelu</li>\n                           <li>vsymys</li>\n                           <li>huimauksen tunne</li>\n                           <li>pnsrky</li>\n                           <li>kutina</li>\n                           <li>selk-, lihas- tai nivelkipu</li>\n                           <li>kurkkukipu</li>\n                           <li>punoitus ja kipu pistoskohdassa</li>\n                           <li>sivuontelotulehdus.</li>\n                        </ul>\n                        <p>\n                           <strong>Melko harvinaiset haittavaikutukset </strong>(esiintyy korkeintaan 1 kyttjll 100:sta):</p>\n                        <ul>\n                           <li>hammastulehdukset</li>\n                           <li>emttimen hiivatulehdus</li>\n                           <li>masennus</li>\n                           <li>nenn tukkoisuus</li>\n                           <li>pistoskohdan verenvuoto, mustelma, kovettuma, turvotus ja kutina</li>\n                           <li>voimattomuus</li>\n                           <li>riippuva silmluomi ja roikkuvat lihakset toispuoleisesti kasvoissa (kasvohalvaus eli Bellin pareesi), joka on yleens vliaikainen</li>\n                           <li>punoittavat psoriaasimuutokset, joissa on tuoreita keltaisia tai valkoisia ihorakkuloita ja joihin voi liitty kuumetta (mrkrakkulainen psoriaasi)</li>\n                           <li>ihon kuoriutuminen (ihon kesiminen)</li>\n                           <li>akne.</li>\n                        </ul>\n                        <p>\n                           <strong>Harvinaiset haittavaikutukset </strong>(esiintyy korkeintaan 1 kyttjll 1 000:sta):</p>\n                        <ul>\n                           <li>kehon laajojen ihoalueiden punoitus ja kesiminen, joka saattaa olla kutisevaa tai kivuliasta (eksfoliatiivinen dermatiitti). Samankaltaisia oireita ilmaantuu toisinaan tietyntyyppisen psoriaasin (erytrodermisen psoriaasin) luonnollisena taudinkulkuna.</li>\n                           <li>pienten verisuonten tulehdus, josta voi aiheutua ihottumaa ja pieni punaisia tai purppuranvrisi kyhmyj, kuumetta tai nivelkipua (verisuonitulehdus).</li>\n                        </ul>\n                        <p>\n                           <strong>Hyvin harvinaiset haittavaikutukset </strong>(esiintyy korkeintaan 1 kyttjll 10 000:sta):</p>\n                        <ul>\n                           <li>ihoon ilmaantuvat rakkulat, jotka voivat olla punaisia, kutisevia tai kivuliaita (rakkulainen pemfigoidi)</li>\n                           <li>ihon lupus tai lupuksen kaltainen oireyhtym (punainen, hilseilev, koholla oleva ihottuma auringolle altistuneilla ihoalueilla, mihin voi liitty nivelkipua).</li>\n                        </ul>\n                        <p>\n                           <strong>Haittavaikutuksista ilmoittaminen</strong>\n                        </p>\n                        <p>Jos havaitset haittavaikutuksia, kerro niist lkrille tai apteekkihenkilkunnalle. Tm koskee mys sellaisia mahdollisia haittavaikutuksia, joita ei ole mainittu tss pakkausselosteessa. Voit ilmoittaa haittavaikutuksista mys suoraan (ks. yhteystiedot alla). Ilmoittamalla haittavaikutuksista voit auttaa saamaan enemmn tietoa tmn lkevalmisteen turvallisuudesta.</p>\n                        <p>www-sivusto: <a href=\"http://www.fimea.fi\">www.fimea.fi</a>\n                           <br/>\nLkealan turvallisuus- ja kehittmiskeskus Fimea<br/>\nLkkeiden haittavaikutusrekisteri<br/>\nPL 55<br/>\n00034 FIMEA</p>\n                     </div>"
          }
        },
        {
          "title" : "Valmisteen silyttminen",
          "code" : {
            "coding" : [{
              "system" : "https://spor.ema.europa.eu/v1/lists/200000029659/terms/",
              "code" : "200000029913"
            }]
          },
          "text" : {
            "status" : "additional",
            "div" : "<div xmlns=\"http://www.w3.org/1999/xhtml\">\n                        <h2>Valmisteen silyttminen</h2>\n                        <ul>\n                           <li>Ei lasten ulottuville eik nkyville.</li>\n                           <li>Silyt jkaapissa (2 C  8 C). Ei saa jty.</li>\n                           <li>Pid esitytetty ruisku ulkopakkauksessa. Herkk valolle.</li>\n                           <li>Yksittisi Stelara esitytettyj ruiskuja voidaan tarvittaessa silytt alkuperispakkauksessa mys huoneenlmmss (enintn 30 C) yhden enintn 30 pivn pituisen jakson ajan. Herkk valolle. Kirjaa ulkopakkaukseen varattuun kohtaan muistiin pivmr, jolloin esitytetty ruisku otetaan ensimmist kertaa jkaapista, sek valmisteen hvittmispivmr. Hvittmispivmr ei saa olla kartonkikoteloon painettua alkuperist viimeist kyttpivmr myhisempi ajankohta. Huoneenlmmss (enintn 30 C) silytetty ruiskua ei saa en laittaa takaisin jkaappiin. Jos huoneenlmmss silytetty ruiskua ei kytet 30 pivn kuluessa tai alkuperiseen viimeiseen kyttpivmrn menness (sen mukaan, kumpi nist on aikaisempi ajankohta), hvit ruisku.</li>\n                           <li>l ravista esitytetty Stelara-ruiskua. Pitkkestoinen voimakas ravistaminen voi pilata lkeaineen.</li>\n                        </ul>\n                        <p>\n                           <strong>l kyt tt lkett:</strong>\n                        </p>\n                        <ul>\n                           <li>etiketiss ja ulkopakkauksessa mainitun viimeisen kyttpivmrn (EXP) jlkeen. Viimeinen kyttpivmr tarkoittaa kuukauden viimeist piv.</li>\n                           <li>jos neste on vrjytynytt, sameaa tai jos havaitset siin vierasainehiukkasia (ks. listietoja kohdasta <a class=\"cross-reference\">Pakkauksen sislt ja muuta tietoa</a> Lkevalmisteen kuvaus ja pakkauskoko)</li>\n                           <li>jos tiedt tai epilet, ett lke on altistunut rimmisille lmptiloille (esim. vahingossa jtynyt tai lmmitetty)</li>\n                           <li>jos valmistetta on ravistettu voimakkaasti.</li>\n                        </ul>\n                        <p>Stelara on tarkoitettu yht kyttkertaa varten. Ruiskuun kyttmtt jv valmiste tulee hvitt.</p>\n                        <p>Lkkeit ei pid heitt viemriin eik hvitt talousjtteiden mukana. Kysy kyttmttmien lkkeiden hvittmisest apteekista. Nin menetellen suojelet luontoa.</p>\n                     </div>"
          }
        },
        {
          "title" : "Pakkauksen sislt ja muuta tietoa",
          "code" : {
            "coding" : [{
              "system" : "https://spor.ema.europa.eu/v1/lists/200000029659/terms/",
              "code" : "200000029914"
            }]
          },
          "text" : {
            "status" : "additional",
            "div" : "<div xmlns=\"http://www.w3.org/1999/xhtml\">\n                        <h2>Pakkauksen sislt ja muuta tietoa</h2>\n                        <p>\n                           <strong>Mit Stelara sislt</strong>\n                        </p>\n                        <ul>\n                           <li>Vaikuttava aine on ustekinumabi. Yksi esitytetty ruisku sislt 90 mg ustekinumabia 1 ml:ssa injektionestett.</li>\n                           <li>Muut aineet ovat L-histidiini, L-histidiinimonohydrokloridimonohydraatti, polysorbaatti 80, sakkaroosi ja injektionesteisiin kytettv vesi.</li>\n                        </ul>\n                        <p>\n                           <strong>Lkevalmisteen kuvaus ja pakkauskoko (-koot)</strong>\n                        </p>\n                        <p>Stelara on kirkas tai hieman opaalinhohtoinen (helmenhohtoinen), vritn tai hieman kellertv injektioneste (liuos). Liuos saattaa sislt pieni lpikuultavia tai valkoisia proteiinihiukkasia. Valmiste on pakattu ulkopakkaukseen, jossa on yhden kerta-annoksen sisltv 1 ml:n lasinen esitytetty ruisku. Yksi esitytetty ruisku sislt 90 mg ustekinumabia 1 ml:ssa injektionestett.</p>\n                        <p>\n                           <strong>Myyntiluvan haltija</strong>\n                        </p>\n                        <p>Janssen-Cilag International NV<br/>\nTurnhoutseweg 30<br/>\nB-2340 Beerse<br/>\nBelgia</p>\n                        <p>\n                           <strong>Valmistaja</strong>\n                        </p>\n                        <p>Janssen Biologics B.V.<br/>\nEinsteinweg 101<br/>\n2333 CB Leiden<br/>\nAlankomaat</p>\n                        <p>Listietoja tst lkevalmisteesta antaa myyntiluvan haltijan paikallinen edustaja:</p>\n                        <table>\n                           <tbody>\n                              <tr>\n                                 <td>\n                                    <p>\n                                       <strong>Suomi/Finland</strong>\n                                    </p>\n                                    <p>Janssen-Cilag Oy<br/>\n\t\t\tPuh/Tel: +358 207 531 300<br/>\n\t\t\tjacfi@its.jnj.com</p>\n                                 </td>\n                              </tr>\n                           </tbody>\n                        </table>\n                        <p>\n                           <strong>Tm pakkausseloste on tarkistettu viimeksi 05/2023.</strong>\n                        </p>\n                        <p>Listietoa tst lkevalmisteesta on saatavilla Euroopan lkeviraston verkkosivulla <a href=\"http://www.ema.europa.eu/\">http://www.ema.europa.eu</a>.</p>\n                     </div>"
          },
          "section" : [{
            "title" : "Ohjeet kyttjlle",
            "code" : {
              "coding" : [{
                "system" : "https://gravitatehealth.eu/section",
                "code" : "patient-info"
              }]
            },
            "text" : {
              "status" : "additional",
              "div" : "<div xmlns=\"http://www.w3.org/1999/xhtml\">\n                           <h2>Ohjeet kyttjlle</h2>\n                           <p>\n                              <strong>Ohjeet valmisteen antoon</strong>\n                           </p>\n                           <p>Lkri tai hoitaja auttaa sinua pistmn ensimmisen injektion hoidon alussa. Lkri saattaa kuitenkin yhdess kanssasi ptt, ett voit pist Stelara-injektion itse. Sinulle neuvotaan tllin, miten pistt Stelara-injektion. Knny lkrin puoleen, jos sinulla on kysymyksi injektion pistmisest itse.</p>\n                           <ul>\n                              <li>l sekoita Stelara-injektionestett muihin injektionesteisiin.</li>\n                              <li>l ravista esitytetty Stelara-ruiskua, koska voimakas ravistaminen voi pilata lkkeen. l kyt lkett, jos sit on ravistettu voimakkaasti.</li>\n                           </ul>\n                           <p>Kuvassa 1 esitetn esitytetyn ruiskun osat.</p>\n                           <p>\n                              <img src=\"#1fe407b4-b4b7-4c7a-8863-4b62c2fe482a\" alt=\"https://ltkpfst.blob.core.windows.net/images/pil/1fe407b4-b4b7-4c7a-8863-4b62c2fe482a.png\" width=\"605\" height=\"179\"/>\n                           </p>\n                           <p>Kuva 1</p>\n                           <p>\n                              <strong>1. Tarkista esitytettyjen ruiskujen mr ja valmistele antovlineet:</strong>\n                           </p>\n                           <p>Esitytetyn ruiskun valmistelu</p>\n                           <ul>\n                              <li>Ota esitytetty(tytetyt) ruisku(t) jkaapista ja anna ruiskun lmmet pakkauksen ulkopuolella noin puolen tunnin ajan. Nin liuoksen lmptila (huoneenlmp) tuntuu miellyttvmmlt pistmisen yhteydess. l poista neulan suojakorkkia huoneenlmpiseksi lmpenemisen aikana.</li>\n                              <li>Tartu esitytettyyn ruiskuun sen varresta siten, ett korkilla suojattu neula osoittaa ylspin.</li>\n                              <li>l tartu ruiskuun mnnn pst, mnnst, neulan suojan siivekkeist tai neulan suojakorkista.</li>\n                              <li>l milloinkaan ved mnt ulospin.</li>\n                              <li>l poista neulan suojakorkkia ennen kuin sinua kehotetaan tekemn niin.</li>\n                              <li>l koske neulan suojan aktivointipainikkeita (*-merkit kuvassa 1), jotta neulan suoja ei asetu neulan plle liian aikaisin.</li>\n                           </ul>\n                           <p>Varmista, ett</p>\n                           <ul>\n                              <li>esitytettyjen ruiskujen mr ja vahvuus on oikea\n\t<ul>\n                                    <li>jos annoksesi on 90 mg, kytt yhden 90 mg:n esitytetyn Stelara-ruiskun</li>\n                                 </ul>\n                              </li>\n                              <li>ruisku sislt oikeaa lkett</li>\n                              <li>viimeist kyttpivmr ei ole ohitettu</li>\n                              <li>esitytetty ruisku ei ole vahingoittunut</li>\n                              <li>esitytetyss ruiskussa oleva liuos on kirkasta tai hieman opaalinhohtoista (helmenhohtoista) ja vritnt tai hieman kellertv</li>\n                              <li>liuos ei ole vrjntynyt tai sameaa eik sisll vierasainehiukkasia</li>\n                              <li>liuos ei ole jtynyt.</li>\n                           </ul>\n                           <p>Ota kaikki tarvitsemasi antovlineet esille ja aseta ne puhtaalle alustalle. Tarvitsemasi antovlineet ovat antiseptiset pyyhkeet, pumpulituppo tai sideharsotaitos, ja kytetyille neuloille tarkoitettu kerysastia.</p>\n                           <p>\n                              <strong>2. Valitse pistoskohta ja valmistele se pistosta varten:</strong>\n                           </p>\n                           <p>Valitse pistoskohta (ks. Kuva 2)</p>\n                           <ul>\n                              <li>Stelara annetaan pistoksena ihon alle.</li>\n                              <li>Sopivia pistokohtia ovat reiden ylosa ja vatsanseutu, kuitenkin vhintn 5 cm:n etisyydell navasta.</li>\n                              <li>Jos mahdollista, vlt alueita, joilla on merkkej psoriaasista.</li>\n                              <li>Jos joku auttaa sinua pistmisess, hn voi valita pistoskohdaksi mys ksivarren ylosan.</li>\n                           </ul>\n                           <p>\n                              <img src=\"#9ec1f27c-2125-4fe9-82c7-af2be64bce54\" alt=\"https://ltkpfst.blob.core.windows.net/images/pil/9ec1f27c-2125-4fe9-82c7-af2be64bce54.png\" width=\"298\" height=\"177\"/>\n                           </p>\n                           <p>Kuva 2</p>\n                           <p>Valmistele pistoskohta</p>\n                           <ul>\n                              <li>Pese ktesi huolellisesti saippualla ja lmpimll vedell.</li>\n                              <li>Pyyhi pistoskohdan iho antiseptisella pyyhkeell.</li>\n                              <li>\n                                 <strong>l</strong> koske thn alueeseen ennen pistmist.</li>\n                           </ul>\n                           <p>\n                              <strong>3. Poista neulan suojakorkki (ks. Kuva 3):</strong>\n                           </p>\n                           <ul>\n                              <li>\n                                 <strong>l</strong> poista neulan suojakorkkia ennen kuin olet valmis pistmn annoksen.</li>\n                              <li>Nosta esitytetty ruisku yhdell kdell tarttumalla sen varteen.</li>\n                              <li>Ved neulan suojakorkki irti suoraan ja hvit se. l koske mntn.</li>\n                           </ul>\n                           <p>\n                              <img src=\"#f6ff794f-715b-49d1-815d-e2dd3de7eb10\" alt=\"https://ltkpfst.blob.core.windows.net/images/pil/f6ff794f-715b-49d1-815d-e2dd3de7eb10.png\" width=\"296\" height=\"151\"/>\n                           </p>\n                           <p>Kuva 3</p>\n                           <ul>\n                              <li>Saatat havaita esitytetyss ruiskussa ilmakuplia tai nestepisaran neulan krjess. Tm on normaalia eik sinun tarvitse tehd mitn.</li>\n                              <li>l koske neulaan lk anna sen koskettaa mihinkn.</li>\n                              <li>l kyt esitytetty ruiskua, jos se on pudonnut eik neulan suojakorkki ollut en paikallaan. Ota yhteys lkriin tai apteekkihenkilkuntaan.</li>\n                              <li>Pist injektio vlittmsti neulan suojakorkin poistamisen jlkeen.</li>\n                           </ul>\n                           <p>\n                              <strong>4. Pistoksen antaminen:</strong>\n                           </p>\n                           <ul>\n                              <li>Pid esitytetty ruiskua etu- ja keskisormen vliss ja aseta peukalo mnnn phn. Purista puhdistettu ihoalue varovasti poimulle toisen kden peukalon ja etusormen vliin. l purista ihoa voimakkaasti.</li>\n                              <li>l milloinkaan ved mnt ulospin.</li>\n                              <li>Paina neula niin syvlle ihoon kuin mahdollista nopealla kertapainalluksella (ks. Kuva 4).</li>\n                           </ul>\n                           <p>\n                              <img src=\"#37c76372-b1f7-418d-af34-d17faf42e6e0\" alt=\"https://ltkpfst.blob.core.windows.net/images/pil/37c76372-b1f7-418d-af34-d17faf42e6e0.png\" width=\"159\" height=\"117\"/>\n                           </p>\n                           <p>Kuva 4</p>\n                           <ul>\n                              <li>Paina mnt, kunnes mnnn p on kokonaan neulan suojan siivekkeiden vliss, jotta saat kaiken lkeaineliuoksen pistetyksi (ks. Kuva 5).</li>\n                           </ul>\n                           <p>\n                              <img src=\"#4013acab-9312-421d-8a9c-ba4243e4838b\" alt=\"https://ltkpfst.blob.core.windows.net/images/pil/4013acab-9312-421d-8a9c-ba4243e4838b.jpeg\" width=\"177\" height=\"151\"/>\n                           </p>\n                           <p>Kuva 5</p>\n                           <ul>\n                              <li>Kun mnt on painettu kokonaan sisn, paina edelleen mnnn pt peukalolla, ved neula ihosta ja vapauta ihopoimu (ks. Kuva 6).</li>\n                           </ul>\n                           <p>\n                              <img src=\"#7057f609-0553-441b-80af-31daadb9dbb3\" alt=\"https://ltkpfst.blob.core.windows.net/images/pil/7057f609-0553-441b-80af-31daadb9dbb3.png\" width=\"244\" height=\"161\"/>\n                           </p>\n                           <p>Kuva 6</p>\n                           <ul>\n                              <li>Irrota peukalo hitaasti mnnn pst, jotta tyhj ruisku psee liikkumaan ylspin, kunnes koko neula on neulan suojan sisll kuvan 7 osoittamalla tavalla.</li>\n                           </ul>\n                           <p>\n                              <img src=\"#5feb7285-ca00-4ddc-b976-50991ce3a4f8\" alt=\"https://ltkpfst.blob.core.windows.net/images/pil/5feb7285-ca00-4ddc-b976-50991ce3a4f8.jpeg\" width=\"226\" height=\"189\"/>\n                           </p>\n                           <p>Kuva 7</p>\n                           <p>\n                              <strong>5. Pistoksen jlkeen:</strong>\n                           </p>\n                           <ul>\n                              <li>Paina antiseptist pyyhett pistoskohdan pll muutaman sekunnin ajan pistoksen jlkeen.</li>\n                              <li>Pistoskohdasta voi vuotaa muutama pisara verta tai nestett. Tm on normaalia.</li>\n                              <li>Voit painaa pistoskohtaa pumpulitupolla tai sideharsotaitoksella 10 sekunnin ajan.</li>\n                              <li>l hankaa pistoskohdan ihoa. Voit tarvittaessa laittaa pistoskohtaan pienen laastarin.</li>\n                           </ul>\n                           <p>\n                              <strong>6. Hvittminen:</strong>\n                           </p>\n                           <ul>\n                              <li>Kytetyt ruiskut laitetaan neulanpiston kestvn, tervlle jtteelle tarkoitettuun kerysastiaan (ks. Kuva 8). Huolehdi omasta ja muiden turvallisuudesta lk koskaan kyt ruiskua uudelleen. Hvit kerysastia paikallisten vaatimusten mukaisesti.</li>\n                              <li>Antiseptiset pyyhkeet ja muut tarvikkeet voidaan hvitt talousjtteiden mukana.</li>\n                           </ul>\n                           <p>\n                              <img src=\"#395ee866-834e-42c0-b663-f1f2745174b5\" alt=\"https://ltkpfst.blob.core.windows.net/images/pil/395ee866-834e-42c0-b663-f1f2745174b5.png\" width=\"125\" height=\"336\"/>\n                           </p>\n                           <p>Kuva 8</p>\n                        </div>"
            },
            "entry" : [{
              "reference" : "#1fe407b4-b4b7-4c7a-8863-4b62c2fe482a"
            },
            {
              "reference" : "#9ec1f27c-2125-4fe9-82c7-af2be64bce54"
            },
            {
              "reference" : "#f6ff794f-715b-49d1-815d-e2dd3de7eb10"
            },
            {
              "reference" : "#37c76372-b1f7-418d-af34-d17faf42e6e0"
            },
            {
              "reference" : "#4013acab-9312-421d-8a9c-ba4243e4838b"
            },
            {
              "reference" : "#7057f609-0553-441b-80af-31daadb9dbb3"
            },
            {
              "reference" : "#5feb7285-ca00-4ddc-b976-50991ce3a4f8"
            },
            {
              "reference" : "#395ee866-834e-42c0-b663-f1f2745174b5"
            }]
          },
          {
            "title" : "Tekstin muuttamispivmr",
            "code" : {
              "coding" : [{
                "system" : "https://spor.ema.europa.eu/v1/lists/200000029659/terms/",
                "code" : "200000029919"
              }]
            },
            "text" : {
              "status" : "additional",
              "div" : "<div xmlns=\"http://www.w3.org/1999/xhtml\">\n                           <h2>Tekstin muuttamispivmr</h2>25.05.2023</div>"
            }
          }]
        }]
      }]
    }
  },
  {
    "fullUrl" : "https://gravitatehealth.eu/fhir/nordic-epi/MedicinalProductDefinition/IBD-MPD-67",
    "resource" : {
      "resourceType" : "MedicinalProductDefinition",
      "id" : "IBD-MPD-67",
      "meta" : {
        "profile" : ["http://hl7.org/fhir/uv/emedicinal-product-info/StructureDefinition/MedicinalProductDefinition-uv-epi",
        "https://gravitatehealth.eu/fhir/nordic-epi-ig/StructureDefinition/Nordic-ePI-MedicinalProductDefinition"]
      },
      "identifier" : [{
        "system" : "http://legemiddelverket.no/FEST/LegemiddelMerkevareID",
        "value" : "ID_0F6C6633-ADEA-4451-940C-542F70633A46"
      }],
      "name" : [{
        "productName" : "Stelara inj, oppl 90 mg/spryte"
      }]
    }
  },
  {
    "fullUrl" : "https://gravitatehealth.eu/fhir/nordic-epi/PackagedProductDefinition/IBD-PPD-80",
    "resource" : {
      "resourceType" : "PackagedProductDefinition",
      "id" : "IBD-PPD-80",
      "meta" : {
        "profile" : ["http://hl7.org/fhir/uv/emedicinal-product-info/StructureDefinition/PackagedProductDefinition-uv-epi",
        "https://gravitatehealth.eu/fhir/nordic-epi-ig/StructureDefinition/Nordic-ePI-PackagedProductDefinition"]
      },
      "identifier" : [{
        "system" : "http://legemiddelverket.no/FEST/LegemiddelPakningID",
        "value" : "ID_FC0B8606-FF4E-4FB5-9C77-D1CC38EFAEA4"
      },
      {
        "system" : "https://farmalogg.no/varenummer",
        "value" : "093838"
      },
      {
        "system" : "https://pharmaca.fi/vnr",
        "value" : "093838"
      }],
      "name" : "Stelara inj, oppl 90 mg/spryte",
      "packageFor" : [{
        "reference" : "MedicinalProductDefinition/IBD-MPD-67"
      }]
    }
  }]
}