{
  "resourceType" : "Bundle",
  "id" : "processedbundlekarveabik",
  "meta" : {
    "profile" : ["http://hl7.org/fhir/uv/emedicinal-product-info/StructureDefinition/Bundle-uv-epi"]
  },
  "language" : "en",
  "identifier" : {
    "system" : "https://www.gravitatehealth.eu/sid/doc",
    "value" : "EU/1/97/049/001"
  },
  "type" : "document",
  "timestamp" : "2023-04-25T11:55:27Z",
  "entry" : [{
    "fullUrl" : "http://hl7.eu/fhir/ig/gravitate-health/Composition/Processed-composition1846d2b12fecbbb0310cd8c196c98a58",
    "resource" : {
      "resourceType" : "Composition",
      "id" : "Processed-composition1846d2b12fecbbb0310cd8c196c98a58",
      "meta" : {
        "profile" : ["http://hl7.org/fhir/uv/emedicinal-product-info/StructureDefinition/Composition-uv-epi"]
      },
      "language" : "en",
      "text" : {
        "status" : "extensions",
        "div" : "<div xmlns=\"http://www.w3.org/1999/xhtml\" xml:lang=\"en\" lang=\"en\"><p><b>Generated Narrative: Composition</b><a name=\"Processed-composition1846d2b12fecbbb0310cd8c196c98a58\"> </a></p><div style=\"display: inline-block; background-color: #d9e0e7; padding: 6px; margin: 4px; border: 1px solid #8da1b4; border-radius: 5px; line-height: 60%\"><p style=\"margin-bottom: 0px\">Resource Composition &quot;Processed-composition1846d2b12fecbbb0310cd8c196c98a58&quot;  (Language &quot;en&quot;) </p><p style=\"margin-bottom: 0px\">Profile: <a href=\"https://build.fhir.org/ig/HL7/emedicinal-product-info//StructureDefinition-Composition-uv-epi.html\">Composition (ePI)</a></p></div><blockquote><p><b>HtmlElementLink</b></p><blockquote><p><b>url</b></p><code>elementClass</code></blockquote><p><b>value</b>: indication</p><blockquote><p><b>url</b></p><code>concept</code></blockquote><p><b>value</b>: HIV-infection/AIDS <span style=\"background: LightGoldenRodYellow; margin: 4px; border: 1px solid khaki\"> (#B90)</span></p></blockquote><blockquote><p><b>HtmlElementLink</b></p><blockquote><p><b>url</b></p><code>elementClass</code></blockquote><p><b>value</b>: pregnancyCategory</p><blockquote><p><b>url</b></p><code>concept</code></blockquote><p><b>value</b>: Pregnancy <span style=\"background: LightGoldenRodYellow; margin: 4px; border: 1px solid khaki\"> (#W78)</span></p></blockquote><blockquote><p><b>HtmlElementLink</b></p><blockquote><p><b>url</b></p><code>elementClass</code></blockquote><p><b>value</b>: breastfeedingCategory</p><blockquote><p><b>url</b></p><code>concept</code></blockquote><p><b>value</b>: Normal breast feeding (finding) <span style=\"background: LightGoldenRodYellow; margin: 4px; border: 1px solid khaki\"> (<a href=\"https://browser.ihtsdotools.org/\">SNOMED CT</a>#69840006)</span></p></blockquote><blockquote><p><b>HtmlElementLink</b></p><blockquote><p><b>url</b></p><code>elementClass</code></blockquote><p><b>value</b>: liver</p><blockquote><p><b>url</b></p><code>concept</code></blockquote><p><b>value</b>: Liver disease, other <span style=\"background: LightGoldenRodYellow; margin: 4px; border: 1px solid khaki\"> (#D97)</span></p></blockquote><blockquote><p><b>HtmlElementLink</b></p><blockquote><p><b>url</b></p><code>elementClass</code></blockquote><p><b>value</b>: contra-indication-hypericum</p><blockquote><p><b>url</b></p><code>concept</code></blockquote><p><b>value</b>: Hypericum perforatum L. <span style=\"background: LightGoldenRodYellow; margin: 4px; border: 1px solid khaki\"> (beta#XK4IUX8MNB)</span></p></blockquote><blockquote><p><b>HtmlElementLink</b></p><blockquote><p><b>url</b></p><code>elementClass</code></blockquote><p><b>value</b>: hepatitisB</p><blockquote><p><b>url</b></p><code>concept</code></blockquote><p><b>value</b>: Viral hepatitis type B (disorder) <span style=\"background: LightGoldenRodYellow; margin: 4px; border: 1px solid khaki\"> (<a href=\"https://browser.ihtsdotools.org/\">SNOMED CT</a>#66071002)</span></p></blockquote><p><b>identifier</b>: id:\u00a0EU/1/18/1289/001</p><p><b>status</b>: final</p><p><b>type</b>: Package Leaflet <span style=\"background: LightGoldenRodYellow; margin: 4px; border: 1px solid khaki\"> (#100000155538)</span></p><p><b>category</b>: Processed <span style=\"background: LightGoldenRodYellow; margin: 4px; border: 1px solid khaki\"> (<a href=\"CodeSystem-epicategory-cs.html\">Category of EPI</a>#P)</span></p><p><b>date</b>: 2022-02-16 13:28:17+0000</p><p><b>author</b>: <a href=\"#Organization_mra-1133a7374c78f1d40f41885344f06a5a\">See above (Organization/mra-1133a7374c78f1d40f41885344f06a5a)</a></p><p><b>title</b>: TEST PURPOSES ONLY - Biktarvy 50 mg/200 mg/25 mg film-coated tablets</p><h3>Attesters</h3><table class=\"grid\"><tr><td style=\"display: none\">-</td><td><b>Mode</b></td><td><b>Time</b></td></tr><tr><td style=\"display: none\">*</td><td>Official <span style=\"background: LightGoldenRodYellow; margin: 4px; border: 1px solid khaki\"> (<a href=\"http://hl7.org/fhir/R5/codesystem-composition-attestation-mode.html\">Composition Attestation Mode</a>#official)</span></td><td>2022-02-16 13:28:17+0000</td></tr></table></div>"
      },
      "extension" : [{
        "extension" : [{
          "url" : "elementClass",
          "valueString" : "indication"
        },
        {
          "url" : "concept",
          "valueCodeableReference" : {
            "concept" : {
              "coding" : [{
                "system" : "https://icpc2.icd.com/",
                "code" : "B90",
                "display" : "HIV-infection/AIDS"
              }]
            }
          }
        }],
        "url" : "http://hl7.eu/fhir/ig/gravitate-health/StructureDefinition/HtmlElementLink"
      },
      {
        "extension" : [{
          "url" : "elementClass",
          "valueString" : "pregnancyCategory"
        },
        {
          "url" : "concept",
          "valueCodeableReference" : {
            "concept" : {
              "coding" : [{
                "system" : "https://icpc2.icd.com/",
                "code" : "W78",
                "display" : "Pregnancy"
              }]
            }
          }
        }],
        "url" : "http://hl7.eu/fhir/ig/gravitate-health/StructureDefinition/HtmlElementLink"
      },
      {
        "extension" : [{
          "url" : "elementClass",
          "valueString" : "breastfeedingCategory"
        },
        {
          "url" : "concept",
          "valueCodeableReference" : {
            "concept" : {
              "coding" : [{
                "system" : "http://snomed.info/sct",
                "code" : "69840006",
                "display" : "Normal breast feeding (finding)"
              }]
            }
          }
        }],
        "url" : "http://hl7.eu/fhir/ig/gravitate-health/StructureDefinition/HtmlElementLink"
      },
      {
        "extension" : [{
          "url" : "elementClass",
          "valueString" : "liver"
        },
        {
          "url" : "concept",
          "valueCodeableReference" : {
            "concept" : {
              "coding" : [{
                "system" : "https://icpc2.icd.com/",
                "code" : "D97",
                "display" : "Liver disease, other"
              }]
            }
          }
        }],
        "url" : "http://hl7.eu/fhir/ig/gravitate-health/StructureDefinition/HtmlElementLink"
      },
      {
        "extension" : [{
          "url" : "elementClass",
          "valueString" : "contra-indication-hypericum"
        },
        {
          "url" : "concept",
          "valueCodeableReference" : {
            "concept" : {
              "coding" : [{
                "system" : "https://gsrs.ncats.nih.gov/ginas/app/beta",
                "code" : "XK4IUX8MNB",
                "display" : "Hypericum perforatum L."
              }]
            }
          }
        }],
        "url" : "http://hl7.eu/fhir/ig/gravitate-health/StructureDefinition/HtmlElementLink"
      },
      {
        "extension" : [{
          "url" : "elementClass",
          "valueString" : "hepatitisB"
        },
        {
          "url" : "concept",
          "valueCodeableReference" : {
            "concept" : {
              "coding" : [{
                "system" : "http://snomed.info/sct",
                "code" : "66071002",
                "display" : "Viral hepatitis type B (disorder)"
              }]
            }
          }
        }],
        "url" : "http://hl7.eu/fhir/ig/gravitate-health/StructureDefinition/HtmlElementLink"
      }],
      "identifier" : [{
        "system" : "https://spor.ema.europa.eu/rmswi/",
        "value" : "EU/1/18/1289/001"
      }],
      "status" : "final",
      "type" : {
        "coding" : [{
          "system" : "https://spor.ema.europa.eu/rmswi/",
          "code" : "100000155538"
        }],
        "text" : "Package Leaflet"
      },
      "category" : [{
        "coding" : [{
          "system" : "http://hl7.eu/fhir/ig/gravitate-health/CodeSystem/epicategory-cs",
          "code" : "P",
          "display" : "Processed"
        }]
      }],
      "subject" : [{
        "reference" : "MedicinalProductDefinition/mp2a9c4333cfd126f2e7b73ad3cafd6949"
      }],
      "date" : "2022-02-16T13:28:17Z",
      "author" : [{
        "reference" : "Organization/mra-1133a7374c78f1d40f41885344f06a5a"
      }],
      "title" : "TEST PURPOSES ONLY - Biktarvy 50 mg/200 mg/25 mg film-coated tablets",
      "attester" : [{
        "mode" : {
          "coding" : [{
            "system" : "http://hl7.org/fhir/composition-attestation-mode",
            "code" : "official"
          }]
        },
        "time" : "2022-02-16T13:28:17Z"
      }],
      "section" : [{
        "title" : "B. Package Leaflet",
        "code" : {
          "coding" : [{
            "system" : "https://spor.ema.europa.eu/rmswi/",
            "code" : "100000155538"
          }],
          "text" : "B. PACKAGE LEAFLET"
        },
        "text" : {
          "status" : "additional",
          "div" : "<div xmlns=\"http://www.w3.org/1999/xhtml\"><p><strong>Read all of this leaflet carefully before you start taking this medicine because it contains important information for you.</strong></p><ul><li>Keep this leaflet. You may need to read it again.</li><li>If you have any further questions, ask your doctor or pharmacist.</li><li>This medicine has been prescribed for you only. Do not pass it on to others. It may harm them, even if their signs of illness are the same as yours.</li><li>If you get any side effects, talk to your doctor or pharmacist. This includes any possible side effects not listed in this leaflet. See section 4.</li></ul><p><strong>If Biktarvy has been prescribed for your child, please note that all the information in this leaflet is addressed to your child (in this case please read “your child” instead of “you”).</strong></p></div>"
        },
        "section" : [{
          "title" : "Package leaflet: Information for the user",
          "code" : {
            "coding" : [{
              "system" : "https://spor.ema.europa.eu/rmswi/",
              "code" : "100000155538"
            }],
            "text" : "Package leaflet: Information for the user"
          },
          "text" : {
            "status" : "additional",
            "div" : "<div xmlns=\"http://www.w3.org/1999/xhtml\"><p><strong>Read all of this leaflet carefully before you start taking this medicine because it contains important information for you.</strong></p><ul><li>Keep this leaflet. You may need to read it again.</li><li>If you have any further questions, ask your doctor or pharmacist.</li><li>This medicine has been prescribed for you only. Do not pass it on to others. It may harm them, even if their signs of illness are the same as yours.</li><li>If you get any side effects, talk to your doctor or pharmacist. This includes any possible side effects not listed in this leaflet. See section 4.</li></ul><p><strong>If Biktarvy has been prescribed for your child, please note that all the information in this leaflet is addressed to your child (in this case please read “your child” instead of “you”).</strong></p></div>"
          }
        },
        {
          "title" : "What is in this leaflet",
          "code" : {
            "coding" : [{
              "system" : "https://spor.ema.europa.eu/rmswi/",
              "code" : "100000155538"
            }],
            "text" : "What is in this leaflet"
          },
          "text" : {
            "status" : "additional",
            "div" : "<div xmlns=\"http://www.w3.org/1999/xhtml\"><p>What is in this leaflet</p><ol><li>What Biktarvy is and what it is used for</li><li>What you need to know before you take Biktarvy</li><li>How to take Biktarvy</li><li>Possible side effects</li><li>How to store Biktarvy</li><li>Contents of the pack and other information</li></ol></div>"
          }
        },
        {
          "title" : "1. What Biktarvy 50 mg/200 mg/25 mg film-coated tablets is and what it is used for",
          "code" : {
            "coding" : [{
              "system" : "https://spor.ema.europa.eu/rmswi/",
              "code" : "100000155538"
            }],
            "text" : "1. What Biktarvy 50 mg/200 mg/25 mg film-coated tablets is and what it is used for"
          },
          "text" : {
            "status" : "additional",
            "div" : "<div xmlns=\"http://www.w3.org/1999/xhtml\"><p>Biktarvy contains three active substances:</p><ul><li>bictegravir, an antiretroviral medicine known as an integrase strand transfer inhibitor (INSTI)</li><li>emtricitabine, an antiretroviral medicine of a type known as a nucleoside reverse transcriptase inhibitor (NRTI)</li><li>tenofovir alafenamide, an antiretroviral medicine of a type known as a nucleotide reverse transcriptase inhibitor (NtRTI)</li></ul><p>Biktarvy is a single tablet for the treatment <span class=\"indication\">of human immunodeficiency virus 1 (HIV-1) infection in adults, adolescents and children 2 years of age and older, who weigh at least 14 kg.</span></p><p>Biktarvy reduces the amount of HIV in your body. This will improve your immune system and reduce the risk of developing illnesses linked to HIV infection.</p></div>"
          }
        },
        {
          "title" : "2. What you need to know before you take Biktarvy 50 mg/200 mg/25 mg film-coated tablets",
          "code" : {
            "coding" : [{
              "system" : "https://spor.ema.europa.eu/rmswi/",
              "code" : "100000155538"
            }],
            "text" : "2. What you need to know before you take Biktarvy 50 mg/200 mg/25 mg film-coated tablets"
          },
          "text" : {
            "status" : "additional",
            "div" : "<div xmlns=\"http://www.w3.org/1999/xhtml\"><p><strong>Do not take Biktarvy</strong></p><ul><li>If you are allergic to bictegravir, emtricitabine, tenofovir alafenamide or any of the other ingredients of this medicine (listed in section 6).</li><li><p>If you are currently taking any of the following medicines:</p><ul><li>rifampicin used to treat some bacterial infections such as tuberculosis</li><li><span class=\"contra-indication-hypericum\">St. John’s wort (Hypericum perforatum), a herbal remedy used for depression and anxiety, or products that contain it.</span></li></ul></li><li><p>If any of these apply to you, <strong>do not take Biktarvy and tell your doctor immediately.</strong></p></li></ul><p><strong>Warnings and precautions</strong></p><p><strong>Talk to your doctor before taking Biktarvy:</strong></p><ul><li><span class=\"liver\">If you have liver problems or a history of liver disease, including hepatitis. Patients with liver disease including chronic hepatitis B or C, who are treated with antiretrovirals, have a higher risk of severe and potentially fatal liver complications. If you have hepatitis B infection, your doctor will carefully consider the best treatment regimen for you.</span></li><li><p><span class=\"hepatitisB\">If you have hepatitis B infection. Liver problems may become worse after you stop taking Biktarvy</span></p></li><li><p>Do not stop taking Biktarvy if you have hepatitis B. Talk to your doctor first. For more details, see section 3, Do not stop taking Biktarvy.</p></li><li><p>If you have had kidney disease or if tests have shown problems with your kidneys. Your doctor may order blood tests to monitor how your kidneys work when starting and during treatment with Biktarvy.</p></li></ul><p><strong>While you are taking Biktarvy</strong></p><p>Once you start taking Biktarvy, look out for:</p><ul><li>Signs of inflammation or infection</li><li>Joint pain, stiffness or bone problems</li></ul><p><strong>If you notice any of these symptoms, tell your doctor immediately. For more information see section 4, Possible side effects.</strong></p><p>There is a possibility that you may experience kidney problems when taking Biktarvy over a long period of time (see Warnings and precautions).</p><p>This medicine is not a cure for HIV infection. While taking Biktarvy you may still develop infections or other illnesses associated with HIV infection.</p><p><strong>Children and adolescents</strong></p><p>Do not give this medicine to children under 2 years of age, or weighing less than 14 kg regardless of age. The use of Biktarvy in children under 2 years of age, or weighing less than 14 kg has not yet been studied. For children and adolescents who weigh 25 kg or more, Biktarvy 50 mg/200 mg/25 mg film-coated tablets are available.</p><p>Loss of bone mass has been reported in some children from 3 to less than 12 years of age who received one of the medicinal products (tenofovir alafenamide) contained in Biktarvy. The effects on long term bone health and future fracture risk in children is uncertain. Your doctor will monitor your child’s bone health as needed.</p><p><strong>Other medicines and Biktarvy</strong></p><p>Tell your doctor or pharmacist if you are taking, have recently taken or might take any other medicines. Biktarvy may interact with other medicines. As a result, the amounts of Biktarvy or other medicines in your blood may change. This may stop your medicines from working properly, or may make any side effects worse. In some cases, your doctor may need to adjust your dose or check your blood levels.</p><p><strong>Medicines that must never be taken with Biktarvy:</strong></p><ul><li>rifampicin used to treat some bacterial infections such as tuberculosis</li><li>St. John’s wort (Hypericum perforatum), a herbal remedy used for depression and anxiety, or products that contain it.</li><li>If you are taking any of these medicines, do not take Biktarvy and tell your doctor immediately.</li></ul><p><strong>Talk to your doctor if you are taking:</strong></p><ul><li>medicines used for treating HIV and/or hepatitis B, containing:<ul><li>adefovir dipivoxil, atazanavir, bictegravir, emtricitabine, lamivudine, tenofovir alafenamide, or tenofovir disoproxil</li></ul></li><li>antibiotics used to treat bacterial infections, containing:<ul><li>azithromycin, clarithromycin, rifabutin or rifapentine</li></ul></li><li>anticonvulsants used to treat epilepsy, containing:<ul><li>carbamazepine, oxcarbazepine, phenobarbital or phenytoin</li></ul></li><li>immunosuppressants used to control your body’s immune response after a transplant, containing ciclosporin</li><li><p>ulcer-healing medicines containing sucralfate</p></li><li><p>Tell your doctor if you are taking any of these medicines. Do not stop your treatment without contacting your doctor.</p></li></ul><p><strong>Get advice from a doctor or pharmacist if you are taking:</strong></p><ul><li>antacids to treat stomach ulcers, heartburn, or acid reflux, containing aluminium and/or magnesium hydroxide</li><li>mineral supplements or vitamins containing magnesium or iron</li><li>Get advice from your doctor or pharmacist before taking Biktarvy if you are taking any of these medicines.</li></ul><p>Antacids and magnesium supplements: you will need to take Biktarvy at least 2 hours before antacids or supplements containing aluminium and/or magnesium. Or you can take Biktarvy with food at least 2 hours after.</p><p>Iron supplements: you will need to take Biktarvy at least 2 hours before iron supplements, or you can take them together with food.</p><div class=\"pregnancyCategory\"><p><strong>Pregnancy and breast-feeding</strong></p><ul><li>If you are pregnant or breast-feeding, think you may be pregnant or are planning to have a baby, ask your doctor or pharmacist for advice before taking this medicine.</li><li>Tell your doctor immediately if you become pregnant and ask about the potential benefits and risks of your antiretroviral therapy to you and your child.</li></ul><p>If you have taken Biktarvy during your pregnancy, your doctor may request regular blood tests and other diagnostic tests to monitor the development of your child. In children whose mothers took nucleoside reverse transcriptase inhibitors (NRTIs) during pregnancy, the benefit from the protection against HIV outweighed the risk of side effects.</p><div class=\"breastfeedingCategory\"><p><strong>Do not breast-feed during treatment with Biktarvy.</strong> This is because some of the active substances in this medicine pass into human breast milk. Breast-feeding is not recommended in women living with HIV because HIV infection can be passed on to the baby in breast milk. If you are breast-feeding, or thinking about breast-feeding, you should discuss it with your doctor as soon as possible.</p></div></div><p><strong>Driving and using machines</strong></p><p>Biktarvy can cause dizziness. If you feel dizzy when taking Biktarvy, do not drive or ride a bicycle and do not use any tools or machines.</p><p><strong>Biktarvy contains sodium</strong></p><p>This medicine contains less than 1 mmol sodium (23 mg) per tablet, that is to say essentially ‘sodium-free’.</p></div>"
          }
        },
        {
          "title" : "3. How to take Biktarvy 50 mg/200 mg/25 mg film-coated tablets",
          "code" : {
            "coding" : [{
              "system" : "https://spor.ema.europa.eu/rmswi/",
              "code" : "100000155538"
            }],
            "text" : "3. How to take Biktarvy 50 mg/200 mg/25 mg film-coated tablets"
          },
          "text" : {
            "status" : "additional",
            "div" : "<div xmlns=\"http://www.w3.org/1999/xhtml\"><p>Always take this medicine exactly as your doctor has told you. Check with your doctor or pharmacist if you are not sure.</p><p>There are two strengths of Biktarvy tablets. Your doctor will prescribe the appropriate tablet for your age and weight.</p><p><strong>The recommended dose is:</strong></p><p>Children 2 years of age and older, who weigh at least 14 kg but less than 25 kg: one tablet each day with or without food (one 30 mg/120 mg/15 mg tablet).</p><p>Due to the bitter taste, it is recommended not to chew or crush the tablet. If you have difficulty swallowing the tablet whole, you can split it in half. Take both halves of the tablet one after the other to get the full dose. Do not store the split tablet.</p><p>The score line on the tablet is only there to help you break the tablet if your child has difficulty swallowing it whole.</p><p>The 90-day multipack contains three 30-day packs together.</p><ul><li>Get advice from a doctor or pharmacist if you are taking:</li><li>antacids to treat stomach ulcers, heartburn, or acid reflux, containing aluminium and/or magnesium hydroxide</li><li>mineral supplements or vitamins containing magnesium or iron</li><li>See section 2 for more information on taking these medicines with Biktarvy.</li></ul><p>If you are on dialysis, take your daily dose of Biktarvy following completion of dialysis.</p><p><strong>If you take more Biktarvy than you should</strong></p><p>If you take more than the recommended dose of Biktarvy you may be at higher risk of side effects of this medicine (see section 4, Possible side effects). Contact your doctor or nearest emergency department immediately for advice. Keep or take the tablet bottle or carton with you so that you can easily describe what you have taken.</p><p><strong>If you forget to take Biktarvy</strong></p><p>It is important not to miss a dose of Biktarvy.</p><p>If you miss a dose:</p><ul><li>If you notice within 18 hours of the time you usually take Biktarvy, you must take the tablet as soon as possible. Then take the next dose as usual.</li><li>If you notice 18 hours or more after the time you usually take Biktarvy, then do not take the missed dose. Wait and take the next dose at your usual time.</li></ul><p>If you vomit less than 1 hour after taking Biktarvy, take another tablet. If you vomit more than 1 hour after taking Biktarvy you do not need to take another tablet until your next regularly scheduled tablet.</p><p><strong>Do not stop taking Biktarvy</strong></p><p>Do not stop taking Biktarvy without talking to your doctor. Stopping Biktarvy can seriously affect how future treatment works. If Biktarvy is stopped for any reason, speak to your doctor before you restart taking Biktarvy tablets.</p><p>When your supply of Biktarvy starts to run low, get more from your doctor or pharmacist. This is very important because the amount of virus may start to increase if the medicine is stopped for even a short time. The disease may then become harder to treat.</p><p>If you have both HIV infection and hepatitis B, it is especially important not to stop your Biktarvy treatment without talking to your doctor first. You may require blood tests for several months after stopping treatment. In some patients with advanced liver disease or cirrhosis, stopping treatment is not recommended as this may lead to worsening of your hepatitis, which may be life-threatening.</p><ul><li>Tell your doctor immediately about new or unusual symptoms after you stop treatment, particularly symptoms you associate with hepatitis B infection. If you have any further questions on the use of this medicine, ask your doctor or pharmacist.</li></ul></div>"
          }
        },
        {
          "title" : "4. Possible side effects",
          "code" : {
            "coding" : [{
              "system" : "https://spor.ema.europa.eu/rmswi/",
              "code" : "100000155538"
            }],
            "text" : "4. Possible side effects"
          },
          "text" : {
            "status" : "additional",
            "div" : "<div xmlns=\"http://www.w3.org/1999/xhtml\"><p>Like all medicines, this medicine can cause side effects, although not everybody gets them.</p><p><strong>Possible side effects: tell a doctor immediately</strong></p><ul><li>Any signs of inflammation or infection. In some patients with advanced HIV infection (AIDS) and a history of opportunistic infections (infections that occur in people with a weak immune system), signs and symptoms of inflammation from previous infections may occur soon after HIV treatment is started. It is thought that these symptoms are due to an improvement in the body’s immune response, enabling the body to fight infections that may have been present with no obvious symptoms.</li><li>Autoimmune disorders, when the immune system attacks healthy body tissue, may also occur after you start taking medicines for HIV infection. Autoimmune disorders may occur many months after the start of treatment. Look out for any symptoms of infection or other symptoms such as:<ul><li>muscle weakness</li><li>weakness beginning in the hands and feet and moving up towards the trunk of the body</li><li>palpitations, tremor or hyperactivity</li></ul></li><li>If you notice these or any symptoms of inflammation or infection, tell your doctor immediately.</li></ul><p><strong>Common side effects</strong> (may affect up to 1 in 10 people)</p><ul><li>depression</li><li>abnormal dreams</li><li>headache</li><li>dizziness</li><li>diarrhoea</li><li>feeling sick (nausea)</li><li>tiredness (fatigue)</li></ul><p><strong>Uncommon side effects</strong></p><p>(may affect up to 1 in 100 people)</p><ul><li>anaemia</li><li>vomiting</li><li>stomach pain</li><li>problems with digestion resulting in discomfort after meals (dyspepsia)</li><li>wind (flatulence)</li><li>swelling of the face, lips, tongue or throat (angioedema)</li><li>itching (pruritus)</li><li>rash</li><li>hives (urticaria)</li><li>joint pain (arthralgia)</li><li>suicidal thoughts and suicide attempt (particularly in patients who have had depression or mental health problems before)</li><li>anxiety</li><li>sleep disorders Blood tests may also show:</li><li>higher levels of substances called bilirubin and/or serum creatinine in the blood</li></ul><p><strong>Rare side effects</strong></p><p>(may affect up to 1 in 1000 people)</p><ul><li>Stevens-Johnson syndrome (SJS) is a serious life-threatening condition which usually starts with flu- like symptoms. A few days later other symptoms appear including:<ul><li>Painful red or purple skin that looks burned and peels off</li><li>Blisters on your skin, mouth, nose, and genitals</li><li>Red, painful, watery eyes</li></ul></li><li>If you have any of these symptoms, stop your medicine immediately and tell your doctor straight away.</li><li>If any of the side effects get serious, tell your doctor.</li></ul><p><strong>Other effects that may be seen during HIV treatment</strong></p><p>The frequency of the following side effects is not known (frequency cannot be estimated from the available data).</p><ul><li>Bone problems. Some patients taking combination antiretroviral medicines such as Biktarvy may develop a bone disease called osteonecrosis (death of bone tissue caused by loss of blood supply to the bone). Taking this type of medicine for a long time, taking corticosteroids, drinking alcohol, having a very weak immune system, and being overweight, may be some of the many risk factors for developing this disease. Signs of osteonecrosis are:<ul><li>joint stiffness</li><li>joint aches and pains (especially of the hip, knee and shoulder)</li><li>difficulty with movement</li></ul></li><li>If you notice any of these symptoms tell your doctor.</li></ul><p>During HIV therapy there may be an increase in weight and in levels of blood lipids and glucose. This is partly linked to restored health and life style, and in the case of blood lipids sometimes to the HIV medicines themselves. Your doctor will test for these changes.</p><p><strong>Reporting of side effects</strong> If you get any side effects, talk to your doctor or pharmacist. This includes any possible side effects not listed in this leaflet. You can also report side effects directly via the national reporting system listed in Appendix V. By reporting side effects you can help provide more information on the safety of this medicine.</p></div>"
          }
        },
        {
          "title" : "5. How to store Biktarvy 50 mg/200 mg/25 mg film-coated tablets",
          "code" : {
            "coding" : [{
              "system" : "https://spor.ema.europa.eu/rmswi/",
              "code" : "100000155538"
            }],
            "text" : "5. How to store Biktarvy 50 mg/200 mg/25 mg film-coated tablets"
          },
          "text" : {
            "status" : "additional",
            "div" : "<div xmlns=\"http://www.w3.org/1999/xhtml\"><p>Keep this medicine out of the sight and reach of children.</p><p>Do not use this medicine after the expiry date which is stated on the carton and bottle or blister strips after {EXP}. The expiry date refers to the last day of that month.</p><p>Store in the original package in order to protect from moisture. Keep the bottle tightly closed. Do not use if the seal over the bottle opening is broken or missing.</p><p>Do not throw away any medicines via wastewater or household waste. Ask your pharmacist how to throw away medicines you no longer use. These measures will help protect the environment.</p></div>"
          }
        },
        {
          "title" : "6. Contents of the pack and other information",
          "code" : {
            "coding" : [{
              "system" : "https://spor.ema.europa.eu/rmswi/",
              "code" : "100000155538"
            }],
            "text" : "6. Contents of the pack and other information"
          },
          "text" : {
            "status" : "additional",
            "div" : "<div xmlns=\"http://www.w3.org/1999/xhtml\"><p><strong>What Biktarvy contains</strong></p><p>The active substances are bictegravir, emtricitabine and tenofovir alafenamide. Each Biktarvy tablet contains bictegravir sodium equivalent to 30 mg of bictegravir, 120 mg of emtricitabine and tenofovir alafenamide fumarate equivalent to 15 mg of tenofovir alafenamide.</p><p><strong>The other ingredients are</strong><em>Tablet core</em>Microcrystalline cellulose (E460), croscarmellose sodium (E468), magnesium stearate (E470b).</p><p><em>Film-coating</em>Polyvinyl alcohol (E203), titanium dioxide (E171), macrogol (E1521), talc (E553b), iron oxide red (E172), iron oxide black (E172).</p><p><strong>What Biktarvy looks like and contents of the pack</strong></p><p>Biktarvy 30 mg/120 mg/15 mg film-coated tablets are pink, capsule-shaped, film-coated tablets, debossed with “BVY” on one side and a score line on the other side of the tablet.</p><p>The tablets are supplied in a bottle. Not all pack sizes may be marketed.</p><p>Biktarvy comes in bottles of 30 tablets and in packs made up of 3 bottles, each containing 30 tablets. Each bottle contains a silica gel desiccant that must be kept in the bottle to help protect your tablets. The silica gel desiccant is contained in a separate sachet or canister and should not be swallowed.</p></div>"
          }
        }]
      }]
    }
  },
  {
    "fullUrl" : "http://hl7.eu/fhir/ig/gravitate-health/ClinicalUseDefinition/cud-d79af6e660f456c6c7091803d6bd1a92",
    "resource" : {
      "resourceType" : "ClinicalUseDefinition",
      "id" : "cud-d79af6e660f456c6c7091803d6bd1a92",
      "meta" : {
        "profile" : ["http://hl7.org/fhir/uv/emedicinal-product-info/StructureDefinition/ClinicalUseDefinition-contraindication-uv-epi"]
      },
      "text" : {
        "status" : "generated",
        "div" : "<div xmlns=\"http://www.w3.org/1999/xhtml\"><p><b>Generated Narrative: ClinicalUseDefinition</b><a name=\"cud-d79af6e660f456c6c7091803d6bd1a92\"> </a></p><div style=\"display: inline-block; background-color: #d9e0e7; padding: 6px; margin: 4px; border: 1px solid #8da1b4; border-radius: 5px; line-height: 60%\"><p style=\"margin-bottom: 0px\">Resource ClinicalUseDefinition &quot;cud-d79af6e660f456c6c7091803d6bd1a92&quot; </p><p style=\"margin-bottom: 0px\">Profile: <a href=\"https://build.fhir.org/ig/HL7/emedicinal-product-info//StructureDefinition-ClinicalUseDefinition-contraindication-uv-epi.html\">ClinicalUseDefinition Contraindication (ePI)</a></p></div><p><b>identifier</b>: id:\u00a0pregnancy\u00a0(use:\u00a0OFFICIAL)</p><p><b>type</b>: contraindication</p><p><b>subject</b>: <a href=\"#MedicinalProductDefinition_mp2a9c4333cfd126f2e7b73ad3cafd6949\">See above (MedicinalProductDefinition/mp2a9c4333cfd126f2e7b73ad3cafd6949)</a></p><blockquote><p><b>contraindication</b></p><h3>DiseaseSymptomProcedures</h3><table class=\"grid\"><tr><td style=\"display: none\">-</td><td><b>Concept</b></td></tr><tr><td style=\"display: none\">*</td><td>nan <span style=\"background: LightGoldenRodYellow; margin: 4px; border: 1px solid khaki\"> (mdr#nan)</span></td></tr></table></blockquote></div>"
      },
      "identifier" : [{
        "use" : "official",
        "system" : "https://spor.ema.europa.eu/rmswi/#/",
        "value" : "pregnancy"
      }],
      "type" : "contraindication",
      "subject" : [{
        "reference" : "MedicinalProductDefinition/mp2a9c4333cfd126f2e7b73ad3cafd6949"
      }],
      "contraindication" : {
        "diseaseSymptomProcedure" : {
          "concept" : {
            "coding" : [{
              "system" : "http://terminology.hl7.org/CodeSystem/mdr",
              "code" : "nan",
              "display" : "nan"
            }]
          }
        }
      }
    }
  },
  {
    "fullUrl" : "http://hl7.eu/fhir/ig/gravitate-health/Ingredient/ingredient-for-biktarvy-bictegravirsodium",
    "resource" : {
      "resourceType" : "Ingredient",
      "id" : "ingredient-for-biktarvy-bictegravirsodium",
      "meta" : {
        "profile" : ["http://hl7.org/fhir/uv/emedicinal-product-info/StructureDefinition/Ingredient-uv-epi"]
      },
      "text" : {
        "status" : "generated",
        "div" : "<div xmlns=\"http://www.w3.org/1999/xhtml\"><p><b>Generated Narrative: Ingredient</b><a name=\"ingredient-for-biktarvy-bictegravirsodium\"> </a></p><div style=\"display: inline-block; background-color: #d9e0e7; padding: 6px; margin: 4px; border: 1px solid #8da1b4; border-radius: 5px; line-height: 60%\"><p style=\"margin-bottom: 0px\">Resource Ingredient &quot;ingredient-for-biktarvy-bictegravirsodium&quot; </p><p style=\"margin-bottom: 0px\">Profile: <a href=\"https://build.fhir.org/ig/HL7/emedicinal-product-info//StructureDefinition-Ingredient-uv-epi.html\">Ingredient (ePI)</a></p></div><p><b>identifier</b>: id:\u00a04L5MP1Y7W7\u00a0(use:\u00a0OFFICIAL)</p><p><b>status</b>: active</p><p><b>for</b>: </p><ul><li><a href=\"#ManufacturedItemDefinition_mid-94a96e39cfdcd8b378d12dd4063065f9\">See above (ManufacturedItemDefinition/mid-94a96e39cfdcd8b378d12dd4063065f9)</a></li><li><a href=\"#MedicinalProductDefinition_mp2a9c4333cfd126f2e7b73ad3cafd6949\">See above (MedicinalProductDefinition/mp2a9c4333cfd126f2e7b73ad3cafd6949)</a></li><li><a href=\"#AdministrableProductDefinition_ap-94a96e39cfdcd8b378d12dd4063065f9\">See above (AdministrableProductDefinition/ap-94a96e39cfdcd8b378d12dd4063065f9)</a></li></ul><p><b>role</b>: Active <span style=\"background: LightGoldenRodYellow; margin: 4px; border: 1px solid khaki\"> (rmswi#100000072072)</span></p><blockquote><p><b>substance</b></p><h3>Codes</h3><table class=\"grid\"><tr><td style=\"display: none\">-</td><td><b>Concept</b></td></tr><tr><td style=\"display: none\">*</td><td>BICTEGRAVIR SODIUM <span style=\"background: LightGoldenRodYellow; margin: 4px; border: 1px solid khaki\"> (beta#4L5MP1Y7W7)</span></td></tr></table><h3>Strengths</h3><table class=\"grid\"><tr><td style=\"display: none\">-</td><td><b>Presentation[x]</b></td><td><b>Basis</b></td></tr><tr><td style=\"display: none\">*</td><td>50 mg<span style=\"background: LightGoldenRodYellow\"> (Details: UCUM code mg = 'mg')</span></td><td>active ingredient - basis of strength <span style=\"background: LightGoldenRodYellow; margin: 4px; border: 1px solid khaki\"> (<a href=\"http://terminology.hl7.org/5.3.0/CodeSystem-v3-RoleClass.html\">RoleClass</a>#ACTIB)</span></td></tr></table></blockquote></div>"
      },
      "identifier" : {
        "use" : "official",
        "system" : "https://gsrs.ncats.nih.gov/ginas/app/beta",
        "value" : "4L5MP1Y7W7"
      },
      "status" : "active",
      "for" : [{
        "reference" : "ManufacturedItemDefinition/mid-94a96e39cfdcd8b378d12dd4063065f9"
      },
      {
        "reference" : "MedicinalProductDefinition/mp2a9c4333cfd126f2e7b73ad3cafd6949"
      },
      {
        "reference" : "AdministrableProductDefinition/ap-94a96e39cfdcd8b378d12dd4063065f9"
      }],
      "role" : {
        "coding" : [{
          "system" : "https://spor.ema.europa.eu/rmswi",
          "code" : "100000072072",
          "display" : "Active"
        }]
      },
      "substance" : {
        "code" : {
          "concept" : {
            "coding" : [{
              "system" : "https://gsrs.ncats.nih.gov/ginas/app/beta",
              "code" : "4L5MP1Y7W7",
              "display" : "BICTEGRAVIR SODIUM"
            }]
          }
        },
        "strength" : [{
          "presentationQuantity" : {
            "value" : 50,
            "system" : "http://unitsofmeasure.org",
            "code" : "mg"
          },
          "basis" : {
            "coding" : [{
              "system" : "http://terminology.hl7.org/CodeSystem/v3-RoleClass",
              "code" : "ACTIB",
              "display" : "active ingredient - basis of strength"
            }]
          }
        }]
      }
    }
  },
  {
    "fullUrl" : "http://hl7.eu/fhir/ig/gravitate-health/Ingredient/ingredient-for-biktarvy-emtricitabine",
    "resource" : {
      "resourceType" : "Ingredient",
      "id" : "ingredient-for-biktarvy-emtricitabine",
      "meta" : {
        "profile" : ["http://hl7.org/fhir/uv/emedicinal-product-info/StructureDefinition/Ingredient-uv-epi"]
      },
      "text" : {
        "status" : "generated",
        "div" : "<div xmlns=\"http://www.w3.org/1999/xhtml\"><p><b>Generated Narrative: Ingredient</b><a name=\"ingredient-for-biktarvy-emtricitabine\"> </a></p><div style=\"display: inline-block; background-color: #d9e0e7; padding: 6px; margin: 4px; border: 1px solid #8da1b4; border-radius: 5px; line-height: 60%\"><p style=\"margin-bottom: 0px\">Resource Ingredient &quot;ingredient-for-biktarvy-emtricitabine&quot; </p><p style=\"margin-bottom: 0px\">Profile: <a href=\"https://build.fhir.org/ig/HL7/emedicinal-product-info//StructureDefinition-Ingredient-uv-epi.html\">Ingredient (ePI)</a></p></div><p><b>identifier</b>: id:\u00a0G70B4ETF4S\u00a0(use:\u00a0OFFICIAL)</p><p><b>status</b>: active</p><p><b>for</b>: </p><ul><li><a href=\"#ManufacturedItemDefinition_mid-94a96e39cfdcd8b378d12dd4063065f9\">See above (ManufacturedItemDefinition/mid-94a96e39cfdcd8b378d12dd4063065f9)</a></li><li><a href=\"#MedicinalProductDefinition_mp2a9c4333cfd126f2e7b73ad3cafd6949\">See above (MedicinalProductDefinition/mp2a9c4333cfd126f2e7b73ad3cafd6949)</a></li><li><a href=\"#AdministrableProductDefinition_ap-94a96e39cfdcd8b378d12dd4063065f9\">See above (AdministrableProductDefinition/ap-94a96e39cfdcd8b378d12dd4063065f9)</a></li></ul><p><b>role</b>: Active <span style=\"background: LightGoldenRodYellow; margin: 4px; border: 1px solid khaki\"> (rmswi#100000072072)</span></p><blockquote><p><b>substance</b></p><h3>Codes</h3><table class=\"grid\"><tr><td style=\"display: none\">-</td><td><b>Concept</b></td></tr><tr><td style=\"display: none\">*</td><td>Emtricitabine <span style=\"background: LightGoldenRodYellow; margin: 4px; border: 1px solid khaki\"> (beta#G70B4ETF4S)</span></td></tr></table><h3>Strengths</h3><table class=\"grid\"><tr><td style=\"display: none\">-</td><td><b>Presentation[x]</b></td><td><b>Basis</b></td></tr><tr><td style=\"display: none\">*</td><td>200 mg<span style=\"background: LightGoldenRodYellow\"> (Details: UCUM code mg = 'mg')</span></td><td>active ingredient - basis of strength <span style=\"background: LightGoldenRodYellow; margin: 4px; border: 1px solid khaki\"> (<a href=\"http://terminology.hl7.org/5.3.0/CodeSystem-v3-RoleClass.html\">RoleClass</a>#ACTIB)</span></td></tr></table></blockquote></div>"
      },
      "identifier" : {
        "use" : "official",
        "system" : "https://gsrs.ncats.nih.gov/ginas/app/beta",
        "value" : "G70B4ETF4S"
      },
      "status" : "active",
      "for" : [{
        "reference" : "ManufacturedItemDefinition/mid-94a96e39cfdcd8b378d12dd4063065f9"
      },
      {
        "reference" : "MedicinalProductDefinition/mp2a9c4333cfd126f2e7b73ad3cafd6949"
      },
      {
        "reference" : "AdministrableProductDefinition/ap-94a96e39cfdcd8b378d12dd4063065f9"
      }],
      "role" : {
        "coding" : [{
          "system" : "https://spor.ema.europa.eu/rmswi",
          "code" : "100000072072",
          "display" : "Active"
        }]
      },
      "substance" : {
        "code" : {
          "concept" : {
            "coding" : [{
              "system" : "https://gsrs.ncats.nih.gov/ginas/app/beta",
              "code" : "G70B4ETF4S",
              "display" : "Emtricitabine"
            }]
          }
        },
        "strength" : [{
          "presentationQuantity" : {
            "value" : 200,
            "system" : "http://unitsofmeasure.org",
            "code" : "mg"
          },
          "basis" : {
            "coding" : [{
              "system" : "http://terminology.hl7.org/CodeSystem/v3-RoleClass",
              "code" : "ACTIB",
              "display" : "active ingredient - basis of strength"
            }]
          }
        }]
      }
    }
  },
  {
    "fullUrl" : "http://hl7.eu/fhir/ig/gravitate-health/Ingredient/ingredient-for-biktarvy-tenofoviralafenamide",
    "resource" : {
      "resourceType" : "Ingredient",
      "id" : "ingredient-for-biktarvy-tenofoviralafenamide",
      "meta" : {
        "profile" : ["http://hl7.org/fhir/uv/emedicinal-product-info/StructureDefinition/Ingredient-uv-epi"]
      },
      "text" : {
        "status" : "generated",
        "div" : "<div xmlns=\"http://www.w3.org/1999/xhtml\"><p><b>Generated Narrative: Ingredient</b><a name=\"ingredient-for-biktarvy-tenofoviralafenamide\"> </a></p><div style=\"display: inline-block; background-color: #d9e0e7; padding: 6px; margin: 4px; border: 1px solid #8da1b4; border-radius: 5px; line-height: 60%\"><p style=\"margin-bottom: 0px\">Resource Ingredient &quot;ingredient-for-biktarvy-tenofoviralafenamide&quot; </p><p style=\"margin-bottom: 0px\">Profile: <a href=\"https://build.fhir.org/ig/HL7/emedicinal-product-info//StructureDefinition-Ingredient-uv-epi.html\">Ingredient (ePI)</a></p></div><p><b>identifier</b>: id:\u00a0EL9943AG5J\u00a0(use:\u00a0OFFICIAL)</p><p><b>status</b>: active</p><p><b>for</b>: </p><ul><li><a href=\"#ManufacturedItemDefinition_mid-94a96e39cfdcd8b378d12dd4063065f9\">See above (ManufacturedItemDefinition/mid-94a96e39cfdcd8b378d12dd4063065f9)</a></li><li><a href=\"#MedicinalProductDefinition_mp2a9c4333cfd126f2e7b73ad3cafd6949\">See above (MedicinalProductDefinition/mp2a9c4333cfd126f2e7b73ad3cafd6949)</a></li><li><a href=\"#AdministrableProductDefinition_ap-94a96e39cfdcd8b378d12dd4063065f9\">See above (AdministrableProductDefinition/ap-94a96e39cfdcd8b378d12dd4063065f9)</a></li></ul><p><b>role</b>: Active <span style=\"background: LightGoldenRodYellow; margin: 4px; border: 1px solid khaki\"> (rmswi#100000072072)</span></p><blockquote><p><b>substance</b></p><h3>Codes</h3><table class=\"grid\"><tr><td style=\"display: none\">-</td><td><b>Concept</b></td></tr><tr><td style=\"display: none\">*</td><td>tenofovir alafenamide <span style=\"background: LightGoldenRodYellow; margin: 4px; border: 1px solid khaki\"> (beta#EL9943AG5J)</span></td></tr></table><h3>Strengths</h3><table class=\"grid\"><tr><td style=\"display: none\">-</td><td><b>Presentation[x]</b></td><td><b>Basis</b></td></tr><tr><td style=\"display: none\">*</td><td>25 mg<span style=\"background: LightGoldenRodYellow\"> (Details: UCUM code mg = 'mg')</span></td><td>active ingredient - basis of strength <span style=\"background: LightGoldenRodYellow; margin: 4px; border: 1px solid khaki\"> (<a href=\"http://terminology.hl7.org/5.3.0/CodeSystem-v3-RoleClass.html\">RoleClass</a>#ACTIB)</span></td></tr></table></blockquote></div>"
      },
      "identifier" : {
        "use" : "official",
        "system" : "https://gsrs.ncats.nih.gov/ginas/app/beta",
        "value" : "EL9943AG5J"
      },
      "status" : "active",
      "for" : [{
        "reference" : "ManufacturedItemDefinition/mid-94a96e39cfdcd8b378d12dd4063065f9"
      },
      {
        "reference" : "MedicinalProductDefinition/mp2a9c4333cfd126f2e7b73ad3cafd6949"
      },
      {
        "reference" : "AdministrableProductDefinition/ap-94a96e39cfdcd8b378d12dd4063065f9"
      }],
      "role" : {
        "coding" : [{
          "system" : "https://spor.ema.europa.eu/rmswi",
          "code" : "100000072072",
          "display" : "Active"
        }]
      },
      "substance" : {
        "code" : {
          "concept" : {
            "coding" : [{
              "system" : "https://gsrs.ncats.nih.gov/ginas/app/beta",
              "code" : "EL9943AG5J",
              "display" : "tenofovir alafenamide"
            }]
          }
        },
        "strength" : [{
          "presentationQuantity" : {
            "value" : 25,
            "system" : "http://unitsofmeasure.org",
            "code" : "mg"
          },
          "basis" : {
            "coding" : [{
              "system" : "http://terminology.hl7.org/CodeSystem/v3-RoleClass",
              "code" : "ACTIB",
              "display" : "active ingredient - basis of strength"
            }]
          }
        }]
      }
    }
  },
  {
    "fullUrl" : "http://hl7.eu/fhir/ig/gravitate-health/Ingredient/ingredient-for-biktarvy-microcrystallinecellulose",
    "resource" : {
      "resourceType" : "Ingredient",
      "id" : "ingredient-for-biktarvy-microcrystallinecellulose",
      "meta" : {
        "profile" : ["http://hl7.org/fhir/uv/emedicinal-product-info/StructureDefinition/Ingredient-uv-epi"]
      },
      "text" : {
        "status" : "generated",
        "div" : "<div xmlns=\"http://www.w3.org/1999/xhtml\"><p><b>Generated Narrative: Ingredient</b><a name=\"ingredient-for-biktarvy-microcrystallinecellulose\"> </a></p><div style=\"display: inline-block; background-color: #d9e0e7; padding: 6px; margin: 4px; border: 1px solid #8da1b4; border-radius: 5px; line-height: 60%\"><p style=\"margin-bottom: 0px\">Resource Ingredient &quot;ingredient-for-biktarvy-microcrystallinecellulose&quot; </p><p style=\"margin-bottom: 0px\">Profile: <a href=\"https://build.fhir.org/ig/HL7/emedicinal-product-info//StructureDefinition-Ingredient-uv-epi.html\">Ingredient (ePI)</a></p></div><p><b>identifier</b>: id:\u00a0OP1R32D61U\u00a0(use:\u00a0OFFICIAL)</p><p><b>status</b>: active</p><p><b>for</b>: </p><ul><li><a href=\"#ManufacturedItemDefinition_mid-94a96e39cfdcd8b378d12dd4063065f9\">See above (ManufacturedItemDefinition/mid-94a96e39cfdcd8b378d12dd4063065f9)</a></li><li><a href=\"#MedicinalProductDefinition_mp2a9c4333cfd126f2e7b73ad3cafd6949\">See above (MedicinalProductDefinition/mp2a9c4333cfd126f2e7b73ad3cafd6949)</a></li><li><a href=\"#AdministrableProductDefinition_ap-94a96e39cfdcd8b378d12dd4063065f9\">See above (AdministrableProductDefinition/ap-94a96e39cfdcd8b378d12dd4063065f9)</a></li></ul><p><b>role</b>: Excipient <span style=\"background: LightGoldenRodYellow; margin: 4px; border: 1px solid khaki\"> (rmswi#100000072082)</span></p><blockquote><p><b>substance</b></p><h3>Codes</h3><table class=\"grid\"><tr><td style=\"display: none\">-</td><td><b>Concept</b></td></tr><tr><td style=\"display: none\">*</td><td>Microcrystalline cellulose <span style=\"background: LightGoldenRodYellow; margin: 4px; border: 1px solid khaki\"> (beta#OP1R32D61U)</span></td></tr></table></blockquote></div>"
      },
      "identifier" : {
        "use" : "official",
        "system" : "https://gsrs.ncats.nih.gov/ginas/app/beta",
        "value" : "OP1R32D61U"
      },
      "status" : "active",
      "for" : [{
        "reference" : "ManufacturedItemDefinition/mid-94a96e39cfdcd8b378d12dd4063065f9"
      },
      {
        "reference" : "MedicinalProductDefinition/mp2a9c4333cfd126f2e7b73ad3cafd6949"
      },
      {
        "reference" : "AdministrableProductDefinition/ap-94a96e39cfdcd8b378d12dd4063065f9"
      }],
      "role" : {
        "coding" : [{
          "system" : "https://spor.ema.europa.eu/rmswi",
          "code" : "100000072082",
          "display" : "Excipient"
        }]
      },
      "substance" : {
        "code" : {
          "concept" : {
            "coding" : [{
              "system" : "https://gsrs.ncats.nih.gov/ginas/app/beta",
              "code" : "OP1R32D61U",
              "display" : "Microcrystalline cellulose"
            }]
          }
        }
      }
    }
  },
  {
    "fullUrl" : "http://hl7.eu/fhir/ig/gravitate-health/Ingredient/ingredient-for-biktarvy-croscarmellosesodium",
    "resource" : {
      "resourceType" : "Ingredient",
      "id" : "ingredient-for-biktarvy-croscarmellosesodium",
      "meta" : {
        "profile" : ["http://hl7.org/fhir/uv/emedicinal-product-info/StructureDefinition/Ingredient-uv-epi"]
      },
      "text" : {
        "status" : "generated",
        "div" : "<div xmlns=\"http://www.w3.org/1999/xhtml\"><p><b>Generated Narrative: Ingredient</b><a name=\"ingredient-for-biktarvy-croscarmellosesodium\"> </a></p><div style=\"display: inline-block; background-color: #d9e0e7; padding: 6px; margin: 4px; border: 1px solid #8da1b4; border-radius: 5px; line-height: 60%\"><p style=\"margin-bottom: 0px\">Resource Ingredient &quot;ingredient-for-biktarvy-croscarmellosesodium&quot; </p><p style=\"margin-bottom: 0px\">Profile: <a href=\"https://build.fhir.org/ig/HL7/emedicinal-product-info//StructureDefinition-Ingredient-uv-epi.html\">Ingredient (ePI)</a></p></div><p><b>identifier</b>: id:\u00a0M28OL1HH48\u00a0(use:\u00a0OFFICIAL)</p><p><b>status</b>: active</p><p><b>for</b>: </p><ul><li><a href=\"#ManufacturedItemDefinition_mid-94a96e39cfdcd8b378d12dd4063065f9\">See above (ManufacturedItemDefinition/mid-94a96e39cfdcd8b378d12dd4063065f9)</a></li><li><a href=\"#MedicinalProductDefinition_mp2a9c4333cfd126f2e7b73ad3cafd6949\">See above (MedicinalProductDefinition/mp2a9c4333cfd126f2e7b73ad3cafd6949)</a></li><li><a href=\"#AdministrableProductDefinition_ap-94a96e39cfdcd8b378d12dd4063065f9\">See above (AdministrableProductDefinition/ap-94a96e39cfdcd8b378d12dd4063065f9)</a></li></ul><p><b>role</b>: Excipient <span style=\"background: LightGoldenRodYellow; margin: 4px; border: 1px solid khaki\"> (rmswi#100000072082)</span></p><blockquote><p><b>substance</b></p><h3>Codes</h3><table class=\"grid\"><tr><td style=\"display: none\">-</td><td><b>Concept</b></td></tr><tr><td style=\"display: none\">*</td><td>Croscarmellose sodium <span style=\"background: LightGoldenRodYellow; margin: 4px; border: 1px solid khaki\"> (beta#M28OL1HH48)</span></td></tr></table></blockquote></div>"
      },
      "identifier" : {
        "use" : "official",
        "system" : "https://gsrs.ncats.nih.gov/ginas/app/beta",
        "value" : "M28OL1HH48"
      },
      "status" : "active",
      "for" : [{
        "reference" : "ManufacturedItemDefinition/mid-94a96e39cfdcd8b378d12dd4063065f9"
      },
      {
        "reference" : "MedicinalProductDefinition/mp2a9c4333cfd126f2e7b73ad3cafd6949"
      },
      {
        "reference" : "AdministrableProductDefinition/ap-94a96e39cfdcd8b378d12dd4063065f9"
      }],
      "role" : {
        "coding" : [{
          "system" : "https://spor.ema.europa.eu/rmswi",
          "code" : "100000072082",
          "display" : "Excipient"
        }]
      },
      "substance" : {
        "code" : {
          "concept" : {
            "coding" : [{
              "system" : "https://gsrs.ncats.nih.gov/ginas/app/beta",
              "code" : "M28OL1HH48",
              "display" : "Croscarmellose sodium"
            }]
          }
        }
      }
    }
  },
  {
    "fullUrl" : "http://hl7.eu/fhir/ig/gravitate-health/Ingredient/ingredient-for-biktarvy-magnesiumstearate",
    "resource" : {
      "resourceType" : "Ingredient",
      "id" : "ingredient-for-biktarvy-magnesiumstearate",
      "meta" : {
        "profile" : ["http://hl7.org/fhir/uv/emedicinal-product-info/StructureDefinition/Ingredient-uv-epi"]
      },
      "text" : {
        "status" : "generated",
        "div" : "<div xmlns=\"http://www.w3.org/1999/xhtml\"><p><b>Generated Narrative: Ingredient</b><a name=\"ingredient-for-biktarvy-magnesiumstearate\"> </a></p><div style=\"display: inline-block; background-color: #d9e0e7; padding: 6px; margin: 4px; border: 1px solid #8da1b4; border-radius: 5px; line-height: 60%\"><p style=\"margin-bottom: 0px\">Resource Ingredient &quot;ingredient-for-biktarvy-magnesiumstearate&quot; </p><p style=\"margin-bottom: 0px\">Profile: <a href=\"https://build.fhir.org/ig/HL7/emedicinal-product-info//StructureDefinition-Ingredient-uv-epi.html\">Ingredient (ePI)</a></p></div><p><b>identifier</b>: id:\u00a070097M6I30\u00a0(use:\u00a0OFFICIAL)</p><p><b>status</b>: active</p><p><b>for</b>: </p><ul><li><a href=\"#ManufacturedItemDefinition_mid-94a96e39cfdcd8b378d12dd4063065f9\">See above (ManufacturedItemDefinition/mid-94a96e39cfdcd8b378d12dd4063065f9)</a></li><li><a href=\"#MedicinalProductDefinition_mp2a9c4333cfd126f2e7b73ad3cafd6949\">See above (MedicinalProductDefinition/mp2a9c4333cfd126f2e7b73ad3cafd6949)</a></li><li><a href=\"#AdministrableProductDefinition_ap-94a96e39cfdcd8b378d12dd4063065f9\">See above (AdministrableProductDefinition/ap-94a96e39cfdcd8b378d12dd4063065f9)</a></li></ul><p><b>role</b>: Excipient <span style=\"background: LightGoldenRodYellow; margin: 4px; border: 1px solid khaki\"> (rmswi#100000072082)</span></p><blockquote><p><b>substance</b></p><h3>Codes</h3><table class=\"grid\"><tr><td style=\"display: none\">-</td><td><b>Concept</b></td></tr><tr><td style=\"display: none\">*</td><td>Magnesium stearate <span style=\"background: LightGoldenRodYellow; margin: 4px; border: 1px solid khaki\"> (beta#70097M6I30)</span></td></tr></table></blockquote></div>"
      },
      "identifier" : {
        "use" : "official",
        "system" : "https://gsrs.ncats.nih.gov/ginas/app/beta",
        "value" : "70097M6I30"
      },
      "status" : "active",
      "for" : [{
        "reference" : "ManufacturedItemDefinition/mid-94a96e39cfdcd8b378d12dd4063065f9"
      },
      {
        "reference" : "MedicinalProductDefinition/mp2a9c4333cfd126f2e7b73ad3cafd6949"
      },
      {
        "reference" : "AdministrableProductDefinition/ap-94a96e39cfdcd8b378d12dd4063065f9"
      }],
      "role" : {
        "coding" : [{
          "system" : "https://spor.ema.europa.eu/rmswi",
          "code" : "100000072082",
          "display" : "Excipient"
        }]
      },
      "substance" : {
        "code" : {
          "concept" : {
            "coding" : [{
              "system" : "https://gsrs.ncats.nih.gov/ginas/app/beta",
              "code" : "70097M6I30",
              "display" : "Magnesium stearate"
            }]
          }
        }
      }
    }
  },
  {
    "fullUrl" : "http://hl7.eu/fhir/ig/gravitate-health/AdministrableProductDefinition/ap-94a96e39cfdcd8b378d12dd4063065f9",
    "resource" : {
      "resourceType" : "AdministrableProductDefinition",
      "id" : "ap-94a96e39cfdcd8b378d12dd4063065f9",
      "meta" : {
        "profile" : ["http://hl7.org/fhir/uv/emedicinal-product-info/StructureDefinition/AdministrableProductDefinition-uv-epi"]
      },
      "text" : {
        "status" : "generated",
        "div" : "<div xmlns=\"http://www.w3.org/1999/xhtml\"><p><b>Generated Narrative: AdministrableProductDefinition</b><a name=\"ap-94a96e39cfdcd8b378d12dd4063065f9\"> </a></p><div style=\"display: inline-block; background-color: #d9e0e7; padding: 6px; margin: 4px; border: 1px solid #8da1b4; border-radius: 5px; line-height: 60%\"><p style=\"margin-bottom: 0px\">Resource AdministrableProductDefinition &quot;ap-94a96e39cfdcd8b378d12dd4063065f9&quot; </p><p style=\"margin-bottom: 0px\">Profile: <a href=\"https://build.fhir.org/ig/HL7/emedicinal-product-info//StructureDefinition-AdministrableProductDefinition-uv-epi.html\">AdministrableProductDefinition (ePI)</a></p></div><p><b>identifier</b>: id:\u00a0EU/1/18/1289/001</p><p><b>status</b>: active</p><p><b>formOf</b>: <a href=\"#MedicinalProductDefinition_mp2a9c4333cfd126f2e7b73ad3cafd6949\">See above (MedicinalProductDefinition/mp2a9c4333cfd126f2e7b73ad3cafd6949)</a></p><p><b>administrableDoseForm</b>: Tablet <span style=\"background: LightGoldenRodYellow; margin: 4px; border: 1px solid khaki\"> (rmswi#100000073664)</span></p><p><b>unitOfPresentation</b>: Tablet <span style=\"background: LightGoldenRodYellow; margin: 4px; border: 1px solid khaki\"> (rmswi#200000002152)</span></p><p><b>producedFrom</b>: <a href=\"#ManufacturedItemDefinition_mid-94a96e39cfdcd8b378d12dd4063065f9\">See above (ManufacturedItemDefinition/mid-94a96e39cfdcd8b378d12dd4063065f9)</a></p><blockquote><p><b>routeOfAdministration</b></p><p><b>code</b>: Oral use <span style=\"background: LightGoldenRodYellow; margin: 4px; border: 1px solid khaki\"> (rmswi#100000073619)</span></p><h3>TargetSpecies</h3><table class=\"grid\"><tr><td style=\"display: none\">-</td><td><b>Code</b></td></tr><tr><td style=\"display: none\">*</td><td>Human <span style=\"background: LightGoldenRodYellow; margin: 4px; border: 1px solid khaki\"> (rmswi#100000109093)</span></td></tr></table></blockquote></div>"
      },
      "identifier" : [{
        "system" : "https://spor.ema.europa.eu/pmswi",
        "value" : "EU/1/18/1289/001"
      }],
      "status" : "active",
      "formOf" : [{
        "reference" : "MedicinalProductDefinition/mp2a9c4333cfd126f2e7b73ad3cafd6949"
      }],
      "administrableDoseForm" : {
        "coding" : [{
          "system" : "https://spor.ema.europa.eu/rmswi",
          "code" : "100000073664",
          "display" : "Tablet"
        }]
      },
      "unitOfPresentation" : {
        "coding" : [{
          "system" : "https://spor.ema.europa.eu/rmswi",
          "code" : "200000002152",
          "display" : "Tablet"
        }]
      },
      "producedFrom" : [{
        "reference" : "ManufacturedItemDefinition/mid-94a96e39cfdcd8b378d12dd4063065f9"
      }],
      "routeOfAdministration" : [{
        "code" : {
          "coding" : [{
            "system" : "https://spor.ema.europa.eu/rmswi",
            "code" : "100000073619",
            "display" : "Oral use"
          }]
        },
        "targetSpecies" : [{
          "code" : {
            "coding" : [{
              "system" : "https://spor.ema.europa.eu/rmswi",
              "code" : "100000109093",
              "display" : "Human"
            }]
          }
        }]
      }]
    }
  },
  {
    "fullUrl" : "http://hl7.eu/fhir/ig/gravitate-health/RegulatedAuthorization/authorization94a96e39cfdcd8b378d12dd4063065f90",
    "resource" : {
      "resourceType" : "RegulatedAuthorization",
      "id" : "authorization94a96e39cfdcd8b378d12dd4063065f90",
      "meta" : {
        "profile" : ["http://hl7.org/fhir/uv/emedicinal-product-info/StructureDefinition/RegulatedAuthorization-uv-epi"]
      },
      "text" : {
        "status" : "generated",
        "div" : "<div xmlns=\"http://www.w3.org/1999/xhtml\"><p><b>Generated Narrative: RegulatedAuthorization</b><a name=\"authorization94a96e39cfdcd8b378d12dd4063065f90\"> </a></p><div style=\"display: inline-block; background-color: #d9e0e7; padding: 6px; margin: 4px; border: 1px solid #8da1b4; border-radius: 5px; line-height: 60%\"><p style=\"margin-bottom: 0px\">Resource RegulatedAuthorization &quot;authorization94a96e39cfdcd8b378d12dd4063065f90&quot; </p><p style=\"margin-bottom: 0px\">Profile: <a href=\"https://build.fhir.org/ig/HL7/emedicinal-product-info//StructureDefinition-RegulatedAuthorization-uv-epi.html\">RegulatedAuthorization (ePI)</a></p></div><p><b>identifier</b>: id:\u00a0EU/1/18/1289/001\u00a0(use:\u00a0OFFICIAL)</p><p><b>subject</b>: <a href=\"#MedicinalProductDefinition_mp2a9c4333cfd126f2e7b73ad3cafd6949\">See above (MedicinalProductDefinition/mp2a9c4333cfd126f2e7b73ad3cafd6949)</a></p><p><b>type</b>: Marketing Authorisation <span style=\"background: LightGoldenRodYellow; margin: 4px; border: 1px solid khaki\"> (rmswi#220000000061)</span></p><p><b>status</b>: Active <span style=\"background: LightGoldenRodYellow; margin: 4px; border: 1px solid khaki\"> (<a href=\"http://hl7.org/fhir/R5/codesystem-publication-status.html\">PublicationStatus</a>#active)</span></p><p><b>statusDate</b>: 2018-06-21 13:28:17+0000</p><p><b>holder</b>: <a href=\"#Organization_mah-715f8a161ed438d0584510e5b4512caa\">See above (Organization/mah-715f8a161ed438d0584510e5b4512caa)</a></p><p><b>regulator</b>: <a href=\"#Organization_mra-1133a7374c78f1d40f41885344f06a5a\">See above (Organization/mra-1133a7374c78f1d40f41885344f06a5a)</a></p></div>"
      },
      "identifier" : [{
        "use" : "official",
        "system" : "https://spor.ema.europa.eu/pmswi",
        "value" : "EU/1/18/1289/001"
      }],
      "subject" : [{
        "reference" : "MedicinalProductDefinition/mp2a9c4333cfd126f2e7b73ad3cafd6949"
      }],
      "type" : {
        "coding" : [{
          "system" : "https://spor.ema.europa.eu/rmswi",
          "code" : "220000000061",
          "display" : "Marketing Authorisation"
        }]
      },
      "status" : {
        "coding" : [{
          "system" : "http://hl7.org/fhir/publication-status",
          "code" : "active",
          "display" : "Active"
        }]
      },
      "statusDate" : "2018-06-21T13:28:17Z",
      "holder" : {
        "reference" : "Organization/mah-715f8a161ed438d0584510e5b4512caa"
      },
      "regulator" : {
        "reference" : "Organization/mra-1133a7374c78f1d40f41885344f06a5a"
      }
    }
  },
  {
    "fullUrl" : "http://hl7.eu/fhir/ig/gravitate-health/Organization/mah-715f8a161ed438d0584510e5b4512caa",
    "resource" : {
      "resourceType" : "Organization",
      "id" : "mah-715f8a161ed438d0584510e5b4512caa",
      "meta" : {
        "profile" : ["http://hl7.org/fhir/uv/emedicinal-product-info/StructureDefinition/Organization-uv-epi"]
      },
      "text" : {
        "status" : "generated",
        "div" : "<div xmlns=\"http://www.w3.org/1999/xhtml\"><p><b>Generated Narrative: Organization</b><a name=\"mah-715f8a161ed438d0584510e5b4512caa\"> </a></p><div style=\"display: inline-block; background-color: #d9e0e7; padding: 6px; margin: 4px; border: 1px solid #8da1b4; border-radius: 5px; line-height: 60%\"><p style=\"margin-bottom: 0px\">Resource Organization &quot;mah-715f8a161ed438d0584510e5b4512caa&quot; </p><p style=\"margin-bottom: 0px\">Profile: <a href=\"https://build.fhir.org/ig/HL7/emedicinal-product-info//StructureDefinition-Organization-uv-epi.html\">Organization (ePI)</a></p></div><p><b>identifier</b>: id:\u00a0ORG-100008368\u00a0(use:\u00a0OFFICIAL)</p><p><b>active</b>: true</p><p><b>type</b>: Marketing authorisation holder <span style=\"background: LightGoldenRodYellow; margin: 4px; border: 1px solid khaki\"> (rmswi#220000000034)</span></p><p><b>name</b>: Gilead Sciences Ireland UC</p><h3>Contacts</h3><table class=\"grid\"><tr><td style=\"display: none\">-</td><td><b>Address</b></td></tr><tr><td style=\"display: none\">*</td><td>Carrigtohill, County Cork, T45 County Cork IR(WORK)</td></tr></table></div>"
      },
      "identifier" : [{
        "use" : "official",
        "system" : "https://spor.ema.europa.eu/omswi",
        "value" : "ORG-100008368"
      }],
      "active" : true,
      "type" : [{
        "coding" : [{
          "system" : "https://spor.ema.europa.eu/rmswi",
          "code" : "220000000034",
          "display" : "Marketing authorisation holder"
        }]
      }],
      "name" : "Gilead Sciences Ireland UC",
      "contact" : [{
        "address" : {
          "use" : "work",
          "type" : "physical",
          "text" : "Carrigtohill, County Cork, T45 County Cork IR",
          "line" : ["Carrigtohill, County Cork, T45"],
          "city" : "County Cork",
          "country" : "IR"
        }
      }]
    }
  },
  {
    "fullUrl" : "http://hl7.eu/fhir/ig/gravitate-health/Organization/mra-1133a7374c78f1d40f41885344f06a5a",
    "resource" : {
      "resourceType" : "Organization",
      "id" : "mra-1133a7374c78f1d40f41885344f06a5a",
      "meta" : {
        "profile" : ["http://hl7.org/fhir/uv/emedicinal-product-info/StructureDefinition/Organization-uv-epi"]
      },
      "text" : {
        "status" : "generated",
        "div" : "<div xmlns=\"http://www.w3.org/1999/xhtml\"><p><b>Generated Narrative: Organization</b><a name=\"mra-1133a7374c78f1d40f41885344f06a5a\"> </a></p><div style=\"display: inline-block; background-color: #d9e0e7; padding: 6px; margin: 4px; border: 1px solid #8da1b4; border-radius: 5px; line-height: 60%\"><p style=\"margin-bottom: 0px\">Resource Organization &quot;mra-1133a7374c78f1d40f41885344f06a5a&quot; </p><p style=\"margin-bottom: 0px\">Profile: <a href=\"https://build.fhir.org/ig/HL7/emedicinal-product-info//StructureDefinition-Organization-uv-epi.html\">Organization (ePI)</a></p></div><p><b>identifier</b>: id:\u00a0ORG-100013412\u00a0(use:\u00a0OFFICIAL)</p><p><b>active</b>: true</p><p><b>type</b>: Medicines Regulatory Authority <span style=\"background: LightGoldenRodYellow; margin: 4px; border: 1px solid khaki\"> (rmswi#220000000032)</span></p><p><b>name</b>: European Medicines Agency</p><h3>Contacts</h3><table class=\"grid\"><tr><td style=\"display: none\">-</td><td><b>Address</b></td></tr><tr><td style=\"display: none\">*</td><td>Carretera De Martorell 41 61, Poligono Industrial Nord-Est Amsterdam NL(WORK)</td></tr></table></div>"
      },
      "identifier" : [{
        "use" : "official",
        "system" : "https://spor.ema.europa.eu/omswi",
        "value" : "ORG-100013412"
      }],
      "active" : true,
      "type" : [{
        "coding" : [{
          "system" : "https://spor.ema.europa.eu/rmswi",
          "code" : "220000000032",
          "display" : "Medicines Regulatory Authority"
        }]
      }],
      "name" : "European Medicines Agency",
      "contact" : [{
        "address" : {
          "use" : "work",
          "type" : "physical",
          "text" : "Carretera De Martorell 41 61, Poligono Industrial Nord-Est Amsterdam NL",
          "line" : ["Carretera De Martorell 41 61, Poligono Industrial Nord-Est"],
          "city" : "Amsterdam",
          "postalCode" : "1083 HS",
          "country" : "NL"
        }
      }]
    }
  },
  {
    "fullUrl" : "http://hl7.eu/fhir/ig/gravitate-health/PackagedProductDefinition/ppd-e34e4b65abd3fd8e667db05606cc25a9",
    "resource" : {
      "resourceType" : "PackagedProductDefinition",
      "id" : "ppd-e34e4b65abd3fd8e667db05606cc25a9",
      "meta" : {
        "profile" : ["http://hl7.org/fhir/uv/emedicinal-product-info/StructureDefinition/PackagedProductDefinition-uv-epi"]
      },
      "text" : {
        "status" : "generated",
        "div" : "<div xmlns=\"http://www.w3.org/1999/xhtml\"><p><b>Generated Narrative: PackagedProductDefinition</b><a name=\"ppd-e34e4b65abd3fd8e667db05606cc25a9\"> </a></p><div style=\"display: inline-block; background-color: #d9e0e7; padding: 6px; margin: 4px; border: 1px solid #8da1b4; border-radius: 5px; line-height: 60%\"><p style=\"margin-bottom: 0px\">Resource PackagedProductDefinition &quot;ppd-e34e4b65abd3fd8e667db05606cc25a9&quot; </p><p style=\"margin-bottom: 0px\">Profile: <a href=\"https://build.fhir.org/ig/HL7/emedicinal-product-info//StructureDefinition-PackagedProductDefinition-uv-epi.html\">PackagedProductDefinition (ePI)</a></p></div><p><b>identifier</b>: id:\u00a0EU/1/18/1289/001\u00a0(use:\u00a0OFFICIAL)</p><p><b>name</b>: Biktarvy 50 mg/200 mg/25 mg film-coated tabletsmg powder for concentrate for solution for infusion 90</p><p><b>type</b>: Chemical Medicinal Product <span style=\"background: LightGoldenRodYellow; margin: 4px; border: 1px solid khaki\"> (rmswi#100000155527)</span></p><p><b>packageFor</b>: <a href=\"#MedicinalProductDefinition_mp2a9c4333cfd126f2e7b73ad3cafd6949\">See above (MedicinalProductDefinition/mp2a9c4333cfd126f2e7b73ad3cafd6949)</a></p><p><b>status</b>: Active <span style=\"background: LightGoldenRodYellow; margin: 4px; border: 1px solid khaki\"> (<a href=\"http://hl7.org/fhir/R5/codesystem-publication-status.html\">PublicationStatus</a>#active)</span></p><p><b>statusDate</b>: 2012-02-07 13:28:17+0000</p><blockquote><p><b>packaging</b></p><p><b>type</b>: Box <span style=\"background: LightGoldenRodYellow; margin: 4px; border: 1px solid khaki\"> (rmswi#100000073498)</span></p><p><b>quantity</b>: 1</p><p><b>material</b>: Cardboard <span style=\"background: LightGoldenRodYellow; margin: 4px; border: 1px solid khaki\"> (rmswi#200000003529)</span></p><blockquote><p><b>packaging</b></p><p><b>identifier</b>: id:\u00a0654321</p><p><b>type</b>: Child-resistant closure <span style=\"background: LightGoldenRodYellow; margin: 4px; border: 1px solid khaki\"> (rmswi#100000073504)</span></p><p><b>quantity</b>: 90</p><p><b>material</b>: PolyVinyl Chloride <span style=\"background: LightGoldenRodYellow; margin: 4px; border: 1px solid khaki\"> (rmswi#200000003222)</span></p><blockquote><p><b>containedItem</b></p></blockquote></blockquote></blockquote></div>"
      },
      "identifier" : [{
        "use" : "official",
        "system" : "https://spor.ema.europa.eu/pmswi",
        "value" : "EU/1/18/1289/001"
      }],
      "name" : "Biktarvy 50 mg/200 mg/25 mg film-coated tabletsmg powder for concentrate for solution for infusion 90",
      "type" : {
        "coding" : [{
          "system" : "https://spor.ema.europa.eu/rmswi",
          "code" : "100000155527",
          "display" : "Chemical Medicinal Product"
        }]
      },
      "packageFor" : [{
        "reference" : "MedicinalProductDefinition/mp2a9c4333cfd126f2e7b73ad3cafd6949"
      }],
      "status" : {
        "coding" : [{
          "system" : "http://hl7.org/fhir/publication-status",
          "code" : "active",
          "display" : "Active"
        }]
      },
      "statusDate" : "2012-02-07T13:28:17Z",
      "packaging" : {
        "type" : {
          "coding" : [{
            "system" : "https://spor.ema.europa.eu/rmswi",
            "code" : "100000073498",
            "display" : "Box"
          }]
        },
        "quantity" : 1,
        "material" : [{
          "coding" : [{
            "system" : "https://spor.ema.europa.eu/rmswi",
            "code" : "200000003529",
            "display" : "Cardboard"
          }]
        }],
        "packaging" : [{
          "identifier" : [{
            "system" : "https://spor.ema.europa.eu/pmswi",
            "value" : "654321"
          }],
          "type" : {
            "coding" : [{
              "system" : "https://spor.ema.europa.eu/rmswi",
              "code" : "100000073504",
              "display" : "Child-resistant closure"
            }]
          },
          "quantity" : 90,
          "material" : [{
            "coding" : [{
              "system" : "https://spor.ema.europa.eu/rmswi",
              "code" : "200000003222",
              "display" : "PolyVinyl Chloride"
            }]
          }],
          "containedItem" : [{
            "item" : {
              "reference" : {
                "reference" : "ManufacturedItemDefinition/mid-94a96e39cfdcd8b378d12dd4063065f9"
              }
            }
          }]
        }]
      }
    }
  },
  {
    "fullUrl" : "http://hl7.eu/fhir/ig/gravitate-health/PackagedProductDefinition/ppd-6d93344139a7793e7b9bd0f5e32b6c91",
    "resource" : {
      "resourceType" : "PackagedProductDefinition",
      "id" : "ppd-6d93344139a7793e7b9bd0f5e32b6c91",
      "meta" : {
        "profile" : ["http://hl7.org/fhir/uv/emedicinal-product-info/StructureDefinition/PackagedProductDefinition-uv-epi"]
      },
      "text" : {
        "status" : "generated",
        "div" : "<div xmlns=\"http://www.w3.org/1999/xhtml\"><p><b>Generated Narrative: PackagedProductDefinition</b><a name=\"ppd-6d93344139a7793e7b9bd0f5e32b6c91\"> </a></p><div style=\"display: inline-block; background-color: #d9e0e7; padding: 6px; margin: 4px; border: 1px solid #8da1b4; border-radius: 5px; line-height: 60%\"><p style=\"margin-bottom: 0px\">Resource PackagedProductDefinition &quot;ppd-6d93344139a7793e7b9bd0f5e32b6c91&quot; </p><p style=\"margin-bottom: 0px\">Profile: <a href=\"https://build.fhir.org/ig/HL7/emedicinal-product-info//StructureDefinition-PackagedProductDefinition-uv-epi.html\">PackagedProductDefinition (ePI)</a></p></div><p><b>identifier</b>: id:\u00a0EU/1/18/1289/001\u00a0(use:\u00a0OFFICIAL)</p><p><b>name</b>: Biktarvy 50 mg/200 mg/25 mg film-coated tabletsmg powder for concentrate for solution for infusion 30</p><p><b>type</b>: Chemical Medicinal Product <span style=\"background: LightGoldenRodYellow; margin: 4px; border: 1px solid khaki\"> (rmswi#100000155527)</span></p><p><b>packageFor</b>: <a href=\"#MedicinalProductDefinition_mp2a9c4333cfd126f2e7b73ad3cafd6949\">See above (MedicinalProductDefinition/mp2a9c4333cfd126f2e7b73ad3cafd6949)</a></p><p><b>status</b>: Active <span style=\"background: LightGoldenRodYellow; margin: 4px; border: 1px solid khaki\"> (<a href=\"http://hl7.org/fhir/R5/codesystem-publication-status.html\">PublicationStatus</a>#active)</span></p><p><b>statusDate</b>: 2012-02-07 13:28:17+0000</p><blockquote><p><b>packaging</b></p><p><b>type</b>: Box <span style=\"background: LightGoldenRodYellow; margin: 4px; border: 1px solid khaki\"> (rmswi#100000073498)</span></p><p><b>quantity</b>: 1</p><p><b>material</b>: Cardboard <span style=\"background: LightGoldenRodYellow; margin: 4px; border: 1px solid khaki\"> (rmswi#200000003529)</span></p><blockquote><p><b>packaging</b></p><p><b>identifier</b>: id:\u00a0654321</p><p><b>type</b>: Child-resistant closure <span style=\"background: LightGoldenRodYellow; margin: 4px; border: 1px solid khaki\"> (rmswi#100000073504)</span></p><p><b>quantity</b>: 30</p><p><b>material</b>: PolyVinyl Chloride <span style=\"background: LightGoldenRodYellow; margin: 4px; border: 1px solid khaki\"> (rmswi#200000003222)</span></p><blockquote><p><b>containedItem</b></p></blockquote></blockquote></blockquote></div>"
      },
      "identifier" : [{
        "use" : "official",
        "system" : "https://spor.ema.europa.eu/pmswi",
        "value" : "EU/1/18/1289/001"
      }],
      "name" : "Biktarvy 50 mg/200 mg/25 mg film-coated tabletsmg powder for concentrate for solution for infusion 30",
      "type" : {
        "coding" : [{
          "system" : "https://spor.ema.europa.eu/rmswi",
          "code" : "100000155527",
          "display" : "Chemical Medicinal Product"
        }]
      },
      "packageFor" : [{
        "reference" : "MedicinalProductDefinition/mp2a9c4333cfd126f2e7b73ad3cafd6949"
      }],
      "status" : {
        "coding" : [{
          "system" : "http://hl7.org/fhir/publication-status",
          "code" : "active",
          "display" : "Active"
        }]
      },
      "statusDate" : "2012-02-07T13:28:17Z",
      "packaging" : {
        "type" : {
          "coding" : [{
            "system" : "https://spor.ema.europa.eu/rmswi",
            "code" : "100000073498",
            "display" : "Box"
          }]
        },
        "quantity" : 1,
        "material" : [{
          "coding" : [{
            "system" : "https://spor.ema.europa.eu/rmswi",
            "code" : "200000003529",
            "display" : "Cardboard"
          }]
        }],
        "packaging" : [{
          "identifier" : [{
            "system" : "https://spor.ema.europa.eu/pmswi",
            "value" : "654321"
          }],
          "type" : {
            "coding" : [{
              "system" : "https://spor.ema.europa.eu/rmswi",
              "code" : "100000073504",
              "display" : "Child-resistant closure"
            }]
          },
          "quantity" : 30,
          "material" : [{
            "coding" : [{
              "system" : "https://spor.ema.europa.eu/rmswi",
              "code" : "200000003222",
              "display" : "PolyVinyl Chloride"
            }]
          }],
          "containedItem" : [{
            "item" : {
              "reference" : {
                "reference" : "ManufacturedItemDefinition/mid-94a96e39cfdcd8b378d12dd4063065f9"
              }
            }
          }]
        }]
      }
    }
  },
  {
    "fullUrl" : "http://hl7.eu/fhir/ig/gravitate-health/MedicinalProductDefinition/mp2a9c4333cfd126f2e7b73ad3cafd6949",
    "resource" : {
      "resourceType" : "MedicinalProductDefinition",
      "id" : "mp2a9c4333cfd126f2e7b73ad3cafd6949",
      "meta" : {
        "profile" : ["http://hl7.org/fhir/uv/emedicinal-product-info/StructureDefinition/MedicinalProductDefinition-uv-epi"]
      },
      "text" : {
        "status" : "generated",
        "div" : "<div xmlns=\"http://www.w3.org/1999/xhtml\"><p><b>Generated Narrative: MedicinalProductDefinition</b><a name=\"mp2a9c4333cfd126f2e7b73ad3cafd6949\"> </a></p><div style=\"display: inline-block; background-color: #d9e0e7; padding: 6px; margin: 4px; border: 1px solid #8da1b4; border-radius: 5px; line-height: 60%\"><p style=\"margin-bottom: 0px\">Resource MedicinalProductDefinition &quot;mp2a9c4333cfd126f2e7b73ad3cafd6949&quot; </p><p style=\"margin-bottom: 0px\">Profile: <a href=\"https://build.fhir.org/ig/HL7/emedicinal-product-info//StructureDefinition-MedicinalProductDefinition-uv-epi.html\">MedicinalProductDefinition (ePI)</a></p></div><p><b>identifier</b>: id:\u00a0EU/1/18/1289/001, id:\u00a00xF79CABF272B6A7EEF104DDDA44E827gy</p><p><b>type</b>: Medicinal Product <span style=\"background: LightGoldenRodYellow; margin: 4px; border: 1px solid khaki\"> (<a href=\"http://hl7.org/fhir/R5/codesystem-medicinal-product-type.html\">Medicinal Product Type</a>#MedicinalProduct)</span></p><p><b>domain</b>: Human use <span style=\"background: LightGoldenRodYellow; margin: 4px; border: 1px solid khaki\"> (<a href=\"http://hl7.org/fhir/R5/codesystem-medicinal-product-domain.html\">Medicinal Product Domain</a>#Human)</span></p><p><b>status</b>: active <span style=\"background: LightGoldenRodYellow; margin: 4px; border: 1px solid khaki\"> (<a href=\"http://hl7.org/fhir/R5/codesystem-publication-status.html\">PublicationStatus</a>#active)</span></p><p><b>legalStatusOfSupply</b>: Medicinal product subject to medical prescription <span style=\"background: LightGoldenRodYellow; margin: 4px; border: 1px solid khaki\"> (rmswi#100000072084)</span></p><blockquote><p><b>name</b></p><p><b>productName</b>: Biktarvy 50 mg/200 mg/25 mg film-coated tabletsmg powder for concentrate for solution for infusion</p><p><b>type</b>: Full name <span style=\"background: LightGoldenRodYellow; margin: 4px; border: 1px solid khaki\"> (220000000000#220000000001)</span></p><blockquote><p><b>part</b></p><p><b>part</b>: Biktarvy</p><p><b>type</b>: Invented name part <span style=\"background: LightGoldenRodYellow; margin: 4px; border: 1px solid khaki\"> (220000000000#220000000002)</span></p></blockquote><blockquote><p><b>part</b></p><p><b>part</b>: bictegravir/emtricitabine/tenofovir alafenamide</p><p><b>type</b>: Scientific name part <span style=\"background: LightGoldenRodYellow; margin: 4px; border: 1px solid khaki\"> (220000000000#220000000003)</span></p></blockquote><blockquote><p><b>part</b></p><p><b>part</b>: 50 mg/200 mg/25 mg</p><p><b>type</b>: Strength part <span style=\"background: LightGoldenRodYellow; margin: 4px; border: 1px solid khaki\"> (220000000000#220000000004)</span></p></blockquote><blockquote><p><b>part</b></p><p><b>part</b>: film-coated tablets</p><p><b>type</b>: Pharmaceutical dose form part <span style=\"background: LightGoldenRodYellow; margin: 4px; border: 1px solid khaki\"> (220000000000#220000000005)</span></p></blockquote><h3>Usages</h3><table class=\"grid\"><tr><td style=\"display: none\">-</td><td><b>Country</b></td><td><b>Jurisdiction</b></td><td><b>Language</b></td></tr><tr><td style=\"display: none\">*</td><td>United Kingdom <span style=\"background: LightGoldenRodYellow; margin: 4px; border: 1px solid khaki\"> (<a href=\"http://terminology.hl7.org/5.3.0/CodeSystem-ISO3166Part1.html\">ISO 3166-1 Codes for the representation of names of countries and their subdivisions — Part 1: Country code</a>#GBR)</span></td><td>United Kingdom <span style=\"background: LightGoldenRodYellow; margin: 4px; border: 1px solid khaki\"> (<a href=\"http://terminology.hl7.org/5.3.0/CodeSystem-ISO3166Part1.html\">ISO 3166-1 Codes for the representation of names of countries and their subdivisions — Part 1: Country code</a>#GBR)</span></td><td>English <span style=\"background: LightGoldenRodYellow; margin: 4px; border: 1px solid khaki\"> (<a href=\"http://terminology.hl7.org/5.3.0/CodeSystem-v3-ietf3066.html\">Tags for the Identification of Languages</a>#en)</span></td></tr></table></blockquote></div>"
      },
      "identifier" : [{
        "system" : "https://spor.ema.europa.eu/pmswi",
        "value" : "EU/1/18/1289/001"
      },
      {
        "system" : "https://www.who-umc.org/phpid",
        "value" : "0xF79CABF272B6A7EEF104DDDA44E827gy"
      }],
      "type" : {
        "coding" : [{
          "system" : "http://hl7.org/fhir/medicinal-product-type",
          "code" : "MedicinalProduct",
          "display" : "Medicinal Product"
        }]
      },
      "domain" : {
        "coding" : [{
          "system" : "http://hl7.org/fhir/medicinal-product-domain",
          "code" : "Human",
          "display" : "Human use"
        }]
      },
      "status" : {
        "coding" : [{
          "system" : "http://hl7.org/fhir/publication-status",
          "code" : "active",
          "display" : "active"
        }]
      },
      "legalStatusOfSupply" : {
        "coding" : [{
          "system" : "https://spor.ema.europa.eu/rmswi",
          "code" : "100000072084",
          "display" : "Medicinal product subject to medical prescription"
        }]
      },
      "name" : [{
        "productName" : "Biktarvy 50 mg/200 mg/25 mg film-coated tabletsmg powder for concentrate for solution for infusion",
        "type" : {
          "coding" : [{
            "system" : "https://spor.ema.europa.eu/lists/220000000000",
            "code" : "220000000001",
            "display" : "Full name"
          }]
        },
        "part" : [{
          "part" : "Biktarvy",
          "type" : {
            "coding" : [{
              "system" : "https://spor.ema.europa.eu/lists/220000000000",
              "code" : "220000000002",
              "display" : "Invented name part"
            }]
          }
        },
        {
          "part" : "bictegravir/emtricitabine/tenofovir alafenamide",
          "type" : {
            "coding" : [{
              "system" : "https://spor.ema.europa.eu/lists/220000000000",
              "code" : "220000000003",
              "display" : "Scientific name part"
            }]
          }
        },
        {
          "part" : "50 mg/200 mg/25 mg",
          "type" : {
            "coding" : [{
              "system" : "https://spor.ema.europa.eu/lists/220000000000",
              "code" : "220000000004",
              "display" : "Strength part"
            }]
          }
        },
        {
          "part" : "film-coated tablets",
          "type" : {
            "coding" : [{
              "system" : "https://spor.ema.europa.eu/lists/220000000000",
              "code" : "220000000005",
              "display" : "Pharmaceutical dose form part"
            }]
          }
        }],
        "usage" : [{
          "country" : {
            "coding" : [{
              "system" : "urn:iso:std:iso:3166",
              "code" : "GBR",
              "display" : "United Kingdom"
            }]
          },
          "jurisdiction" : {
            "coding" : [{
              "system" : "urn:iso:std:iso:3166",
              "code" : "GBR",
              "display" : "United Kingdom"
            }]
          },
          "language" : {
            "coding" : [{
              "system" : "urn:ietf:bcp:47",
              "code" : "en",
              "display" : "English"
            }]
          }
        }]
      }]
    }
  },
  {
    "fullUrl" : "http://hl7.eu/fhir/ig/gravitate-health/ManufacturedItemDefinition/mid-94a96e39cfdcd8b378d12dd4063065f9",
    "resource" : {
      "resourceType" : "ManufacturedItemDefinition",
      "id" : "mid-94a96e39cfdcd8b378d12dd4063065f9",
      "meta" : {
        "profile" : ["http://hl7.org/fhir/uv/emedicinal-product-info/StructureDefinition/ManufacturedItemDefinition-uv-epi"]
      },
      "text" : {
        "status" : "generated",
        "div" : "<div xmlns=\"http://www.w3.org/1999/xhtml\"><p><b>Generated Narrative: ManufacturedItemDefinition</b><a name=\"mid-94a96e39cfdcd8b378d12dd4063065f9\"> </a></p><div style=\"display: inline-block; background-color: #d9e0e7; padding: 6px; margin: 4px; border: 1px solid #8da1b4; border-radius: 5px; line-height: 60%\"><p style=\"margin-bottom: 0px\">Resource ManufacturedItemDefinition &quot;mid-94a96e39cfdcd8b378d12dd4063065f9&quot; </p><p style=\"margin-bottom: 0px\">Profile: <a href=\"https://build.fhir.org/ig/HL7/emedicinal-product-info//StructureDefinition-ManufacturedItemDefinition-uv-epi.html\">ManufacturedItemDefinition (ePI)</a></p></div><p><b>identifier</b>: id:\u00a0EU/1/18/1289/001\u00a0(use:\u00a0OFFICIAL)</p><p><b>status</b>: active</p><p><b>manufacturedDoseForm</b>: Tablet <span style=\"background: LightGoldenRodYellow; margin: 4px; border: 1px solid khaki\"> (#100000073664)</span></p><p><b>unitOfPresentation</b>: Tablet <span style=\"background: LightGoldenRodYellow; margin: 4px; border: 1px solid khaki\"> (rmswi#200000002152)</span></p></div>"
      },
      "identifier" : [{
        "use" : "official",
        "system" : "https://spor.ema.europa.eu/pmswi",
        "value" : "EU/1/18/1289/001"
      }],
      "status" : "active",
      "manufacturedDoseForm" : {
        "coding" : [{
          "system" : "https://spor.ema.europa.eu/rmswi/",
          "code" : "100000073664",
          "display" : "Tablet"
        }]
      },
      "unitOfPresentation" : {
        "coding" : [{
          "system" : "https://spor.ema.europa.eu/rmswi",
          "code" : "200000002152",
          "display" : "Tablet"
        }]
      }
    }
  },
  {
    "fullUrl" : "http://hl7.eu/fhir/ig/gravitate-health/ClinicalUseDefinition/contraindication-kidney-bik",
    "resource" : {
      "resourceType" : "ClinicalUseDefinition",
      "id" : "contraindication-kidney-bik",
      "meta" : {
        "profile" : ["http://hl7.org/fhir/uv/emedicinal-product-info/StructureDefinition/ClinicalUseDefinition-contraindication-uv-epi"]
      },
      "text" : {
        "status" : "generated",
        "div" : "<div xmlns=\"http://www.w3.org/1999/xhtml\"><p><b>Generated Narrative: ClinicalUseDefinition</b><a name=\"contraindication-kidney-bik\"> </a></p><div style=\"display: inline-block; background-color: #d9e0e7; padding: 6px; margin: 4px; border: 1px solid #8da1b4; border-radius: 5px; line-height: 60%\"><p style=\"margin-bottom: 0px\">Resource ClinicalUseDefinition &quot;contraindication-kidney-bik&quot; </p><p style=\"margin-bottom: 0px\">Profile: <a href=\"https://build.fhir.org/ig/HL7/emedicinal-product-info//StructureDefinition-ClinicalUseDefinition-contraindication-uv-epi.html\">ClinicalUseDefinition Contraindication (ePI)</a></p></div><p><b>identifier</b>: id:\u00a0kidney function\u00a0(use:\u00a0OFFICIAL)</p><p><b>type</b>: contraindication</p><p><b>subject</b>: <a href=\"#MedicinalProductDefinition_mp2a9c4333cfd126f2e7b73ad3cafd6949\">See above (MedicinalProductDefinition/mp2a9c4333cfd126f2e7b73ad3cafd6949)</a></p><blockquote><p><b>contraindication</b></p><h3>DiseaseSymptomProcedures</h3><table class=\"grid\"><tr><td style=\"display: none\">-</td><td><b>Concept</b></td></tr><tr><td style=\"display: none\">*</td><td>Decreased renal function (finding) <span style=\"background: LightGoldenRodYellow; margin: 4px; border: 1px solid khaki\"> (<a href=\"https://browser.ihtsdotools.org/\">SNOMED CT</a>#76114004)</span></td></tr></table></blockquote></div>"
      },
      "identifier" : [{
        "use" : "official",
        "system" : "https://spor.ema.europa.eu/rmswi/#/",
        "value" : "kidney function"
      }],
      "type" : "contraindication",
      "subject" : [{
        "reference" : "MedicinalProductDefinition/mp2a9c4333cfd126f2e7b73ad3cafd6949"
      }],
      "contraindication" : {
        "diseaseSymptomProcedure" : {
          "concept" : {
            "coding" : [{
              "system" : "http://snomed.info/sct",
              "code" : "76114004",
              "display" : "Decreased renal function (finding)"
            }]
          }
        }
      }
    }
  },
  {
    "fullUrl" : "http://hl7.eu/fhir/ig/gravitate-health/ClinicalUseDefinition/contraindication-diabetes-mellitus-bik",
    "resource" : {
      "resourceType" : "ClinicalUseDefinition",
      "id" : "contraindication-diabetes-mellitus-bik",
      "meta" : {
        "profile" : ["http://hl7.org/fhir/uv/emedicinal-product-info/StructureDefinition/ClinicalUseDefinition-contraindication-uv-epi"]
      },
      "text" : {
        "status" : "generated",
        "div" : "<div xmlns=\"http://www.w3.org/1999/xhtml\"><p><b>Generated Narrative: ClinicalUseDefinition</b><a name=\"contraindication-diabetes-mellitus-bik\"> </a></p><div style=\"display: inline-block; background-color: #d9e0e7; padding: 6px; margin: 4px; border: 1px solid #8da1b4; border-radius: 5px; line-height: 60%\"><p style=\"margin-bottom: 0px\">Resource ClinicalUseDefinition &quot;contraindication-diabetes-mellitus-bik&quot; </p><p style=\"margin-bottom: 0px\">Profile: <a href=\"https://build.fhir.org/ig/HL7/emedicinal-product-info//StructureDefinition-ClinicalUseDefinition-contraindication-uv-epi.html\">ClinicalUseDefinition Contraindication (ePI)</a></p></div><p><b>identifier</b>: id:\u00a0diabetes-mellitus\u00a0(use:\u00a0OFFICIAL)</p><p><b>type</b>: contraindication</p><p><b>subject</b>: <a href=\"#MedicinalProductDefinition_mp2a9c4333cfd126f2e7b73ad3cafd6949\">See above (MedicinalProductDefinition/mp2a9c4333cfd126f2e7b73ad3cafd6949)</a></p><blockquote><p><b>contraindication</b></p><h3>DiseaseSymptomProcedures</h3><table class=\"grid\"><tr><td style=\"display: none\">-</td><td><b>Concept</b></td></tr><tr><td style=\"display: none\">*</td><td>Diabetes mellitus (disorder) <span style=\"background: LightGoldenRodYellow; margin: 4px; border: 1px solid khaki\"> (<a href=\"https://browser.ihtsdotools.org/\">SNOMED CT</a>#73211009)</span></td></tr></table></blockquote></div>"
      },
      "identifier" : [{
        "use" : "official",
        "system" : "https://spor.ema.europa.eu/rmswi/#/",
        "value" : "diabetes-mellitus"
      }],
      "type" : "contraindication",
      "subject" : [{
        "reference" : "MedicinalProductDefinition/mp2a9c4333cfd126f2e7b73ad3cafd6949"
      }],
      "contraindication" : {
        "diseaseSymptomProcedure" : {
          "concept" : {
            "coding" : [{
              "system" : "http://snomed.info/sct",
              "code" : "73211009",
              "display" : "Diabetes mellitus (disorder)"
            }]
          }
        }
      }
    }
  },
  {
    "fullUrl" : "http://hl7.eu/fhir/ig/gravitate-health/ClinicalUseDefinition/contraindication-pregnancy-bik",
    "resource" : {
      "resourceType" : "ClinicalUseDefinition",
      "id" : "contraindication-pregnancy-bik",
      "meta" : {
        "profile" : ["http://hl7.org/fhir/uv/emedicinal-product-info/StructureDefinition/ClinicalUseDefinition-contraindication-uv-epi"]
      },
      "text" : {
        "status" : "generated",
        "div" : "<div xmlns=\"http://www.w3.org/1999/xhtml\"><p><b>Generated Narrative: ClinicalUseDefinition</b><a name=\"contraindication-pregnancy-bik\"> </a></p><div style=\"display: inline-block; background-color: #d9e0e7; padding: 6px; margin: 4px; border: 1px solid #8da1b4; border-radius: 5px; line-height: 60%\"><p style=\"margin-bottom: 0px\">Resource ClinicalUseDefinition &quot;contraindication-pregnancy-bik&quot; </p><p style=\"margin-bottom: 0px\">Profile: <a href=\"https://build.fhir.org/ig/HL7/emedicinal-product-info//StructureDefinition-ClinicalUseDefinition-contraindication-uv-epi.html\">ClinicalUseDefinition Contraindication (ePI)</a></p></div><p><b>identifier</b>: id:\u00a0pregnancy\u00a0(use:\u00a0OFFICIAL)</p><p><b>type</b>: contraindication</p><p><b>subject</b>: <a href=\"#MedicinalProductDefinition_mp2a9c4333cfd126f2e7b73ad3cafd6949\">See above (MedicinalProductDefinition/mp2a9c4333cfd126f2e7b73ad3cafd6949)</a></p><blockquote><p><b>contraindication</b></p><h3>DiseaseSymptomProcedures</h3><table class=\"grid\"><tr><td style=\"display: none\">-</td><td><b>Concept</b></td></tr><tr><td style=\"display: none\">*</td><td>Pregnancy, function (observable entity) <span style=\"background: LightGoldenRodYellow; margin: 4px; border: 1px solid khaki\"> (<a href=\"https://browser.ihtsdotools.org/\">SNOMED CT</a>#289908002)</span></td></tr></table></blockquote></div>"
      },
      "identifier" : [{
        "use" : "official",
        "system" : "https://spor.ema.europa.eu/rmswi/#/",
        "value" : "pregnancy"
      }],
      "type" : "contraindication",
      "subject" : [{
        "reference" : "MedicinalProductDefinition/mp2a9c4333cfd126f2e7b73ad3cafd6949"
      }],
      "contraindication" : {
        "diseaseSymptomProcedure" : {
          "concept" : {
            "coding" : [{
              "system" : "http://snomed.info/sct",
              "code" : "289908002",
              "display" : "Pregnancy, function (observable entity)"
            }]
          }
        }
      }
    }
  }]
}