<?xml version="1.0" encoding="UTF-8"?>

<Bundle xmlns="http://hl7.org/fhir">
  <id value="bundlepackageleaflet-en-0ea7cb60ce178124a5eca40942ba8f42"/>
  <meta>
    <profile value="http://hl7.org/fhir/uv/emedicinal-product-info/StructureDefinition/Bundle-uv-epi"/>
  </meta>
  <language value="en"/>
  <identifier>
    <system value="https://www.gravitatehealth.eu/sid/doc"/>
    <value value="EU/1/19/1370/001"/>
  </identifier>
  <type value="document"/>
  <timestamp value="2023-06-27T10:09:22Z"/>
  <entry>
    <fullUrl value="http://hl7.eu/fhir/ig/gravitate-health/Composition/composition-en-16598f252d07b4784b82ba43cf9e847e"/>
    <resource>
      <Composition>
        <id value="composition-en-16598f252d07b4784b82ba43cf9e847e"/>
        <meta>
          <profile value="http://hl7.org/fhir/uv/emedicinal-product-info/StructureDefinition/Composition-uv-epi"/>
        </meta>
        <language value="en"/>
        <text>
          <status value="generated"/><div xmlns="http://www.w3.org/1999/xhtml" xml:lang="en" lang="en"><p><b>Generated Narrative: Composition</b><a name="composition-en-16598f252d07b4784b82ba43cf9e847e"> </a></p><div style="display: inline-block; background-color: #d9e0e7; padding: 6px; margin: 4px; border: 1px solid #8da1b4; border-radius: 5px; line-height: 60%"><p style="margin-bottom: 0px">Resource Composition &quot;composition-en-16598f252d07b4784b82ba43cf9e847e&quot;  (Language &quot;en&quot;) </p><p style="margin-bottom: 0px">Profile: <a href="https://build.fhir.org/ig/HL7/emedicinal-product-info//StructureDefinition-Composition-uv-epi.html">Composition (ePI)</a></p></div><p><b>identifier</b>: id: c90d140de2d4ddf3b2a2617fc2fc996c</p><p><b>status</b>: final</p><p><b>type</b>: Package Leaflet <span style="background: LightGoldenRodYellow; margin: 4px; border: 1px solid khaki"> (#100000155538)</span></p><p><b>category</b>: Raw <span style="background: LightGoldenRodYellow; margin: 4px; border: 1px solid khaki"> (<a href="CodeSystem-epicategory-cs.html">Category of EPI</a>#R)</span></p><p><b>date</b>: 2022-02-16 13:28:17+0000</p><p><b>author</b>: <a href="#Organization_mah-31ff1af739c7dcf77386a86f8dd83d29">See above (Organization/mah-31ff1af739c7dcf77386a86f8dd83d29)</a></p><p><b>title</b>: TEST PURPOSES ONLY - Dovato 50 mg/300 mg film-coated tablets</p><h3>Attesters</h3><table class="grid"><tr><td style="display: none">-</td><td><b>Mode</b></td><td><b>Time</b></td></tr><tr><td style="display: none">*</td><td>Official <span style="background: LightGoldenRodYellow; margin: 4px; border: 1px solid khaki"> (<a href="http://hl7.org/fhir/R5/codesystem-composition-attestation-mode.html">Composition Attestation Mode</a>#official)</span></td><td>2022-02-16 13:28:17+0000</td></tr></table></div>
        </text>
        <identifier>
          <system value="https://spor.ema.europa.eu/rmswi/"/>
          <value value="c90d140de2d4ddf3b2a2617fc2fc996c"/>
        </identifier>
        <status value="final"/>
        <type>
          <coding>
            <system value="https://spor.ema.europa.eu/rmswi/"/>
            <code value="100000155538"/>
          </coding>
          <text value="Package Leaflet"/>
        </type>
        <category>
          <coding>
            <system value="http://hl7.eu/fhir/ig/gravitate-health/CodeSystem/epicategory-cs"/>
            <code value="R"/>
            <display value="Raw"/>
          </coding>
        </category>
        <subject>
          <reference value="MedicinalProductDefinition/mp16598f252d07b4784b82ba43cf9e847e"/>
        </subject>
        <date value="2022-02-16T13:28:17Z"/>
        <author>
          <reference value="Organization/mah-31ff1af739c7dcf77386a86f8dd83d29"/>
        </author>
        <title value="TEST PURPOSES ONLY - Dovato 50 mg/300 mg film-coated tablets"/>
        <attester>
          <mode>
            <coding>
              <system value="http://hl7.org/fhir/composition-attestation-mode"/>
              <code value="official"/>
            </coding>
          </mode>
          <time value="2022-02-16T13:28:17Z"/>
        </attester>
        <section>
          <title value="B. Package Leaflet"/>
          <code>
            <coding>
              <system value="https://spor.ema.europa.eu/rmswi/"/>
              <code value="100000155538"/>
            </coding>
            <text value="B. PACKAGE LEAFLET"/>
          </code>
          <text>
            <status value="additional"/><div xmlns="http://www.w3.org/1999/xhtml">Package leaflet: Information for the patient Dovato 50 mg/300 mg film-coated tablets dolutegravir/lamivudine Read all of this leaflet carefully before you start taking this medicine because it contains important information for you.<ul><li>Keep this leaflet. You may need to read it again.</li><li>If you have any further questions, ask your doctor or pharmacist.</li><li>This medicine has been prescribed for you only. Do not pass it on to others. It may harm them, even if their signs of illness are the same as yours.</li><li>If you get any side effects talk to your doctor or pharmacist. This includes any possible side effects not listed in this leaflet. See section 4.</li></ul></div>
          </text>
          <section>
            <title value="Package leaflet: Information for the user"/>
            <code>
              <coding>
                <system value="https://spor.ema.europa.eu/rmswi/"/>
                <code value="100000155538"/>
              </coding>
              <text value="Package leaflet: Information for the user"/>
            </code>
            <text>
              <status value="additional"/><div xmlns="http://www.w3.org/1999/xhtml"><p><strong>Dovato 50 mg/300 mg film-coated tablets</strong></p><p><em>dolutegravir/lamivudine</em></p><p><strong>Read all of this leaflet carefully before you start taking this medicine because it contains important information for you.</strong></p><ul><li>Keep this leaflet. You may need to read it again.</li><li>If you have any further questions, ask your doctor, or pharmacist.</li><li>This medicine has been prescribed for you only. Do not pass it on to others. It may harm them, even if their signs of illness are the same as yours.</li><li>If you get any side effects, talk to your doctor, or pharmacist. This includes any possible side effects not listed in this leaflet. See section 4.</li></ul></div>
            </text>
          </section>
          <section>
            <title value="What is in this leaflet"/>
            <code>
              <coding>
                <system value="https://spor.ema.europa.eu/rmswi/"/>
                <code value="100000155538"/>
              </coding>
              <text value="What is in this leaflet"/>
            </code>
            <text>
              <status value="additional"/><div xmlns="http://www.w3.org/1999/xhtml">What in this leaflet<ol><li>What Dovato is and what it is used for</li><li>What you need to know before you take Dovato</li><li>How to take Dovato</li><li>Possible side effects</li><li>How to store Dovato</li><li>Contents of the pack and other information</li></ol></div>
            </text>
          </section>
          <section>
            <title value="1. What Dovato 50 mg/300 mg film-coated tablets is and what it is used for"/>
            <code>
              <coding>
                <system value="https://spor.ema.europa.eu/rmswi/"/>
                <code value="100000155538"/>
              </coding>
              <text value="1. What Dovato 50 mg/300 mg film-coated tablets is and what it is used for"/>
            </code>
            <text>
              <status value="additional"/><div xmlns="http://www.w3.org/1999/xhtml"><p>Dovato is a medicine that contains two active ingredients used to treat human immunodeficiency virus (HIV) infection: dolutegravir and lamivudine. Dolutegravir belongs to a group of anti-retroviral medicines called integrase inhibitors (INIs), and lamivudine belongs to a group of anti-retroviral medicines called nucleoside analogue reverse transcriptase inhibitors (NRTIs).</p><p>Dovato is used to treat HIV in adults and adolescents over 12 years old who weigh at least 40 kg.</p><p>Dovato does not cure HIV infection; it keeps the amount of virus in your body at a low level. This helps maintain the number of CD4 cells in your blood. CD4 cells are a type of white blood cells that are important in helping your body to fight infection.</p><p>Not everyone responds to treatment with Dovato in the same way. Your doctor will monitor the effectiveness of your treatment.</p></div>
            </text>
          </section>
          <section>
            <title value="2. What you need to know before you take Dovato 50 mg/300 mg film-coated tablets"/>
            <code>
              <coding>
                <system value="https://spor.ema.europa.eu/rmswi/"/>
                <code value="100000155538"/>
              </coding>
              <text value="2. What you need to know before you take Dovato 50 mg/300 mg film-coated tablets"/>
            </code>
            <text>
              <status value="additional"/><div xmlns="http://www.w3.org/1999/xhtml"><p>Do not take Dovato</p><ul><li>if you are allergic (hypersensitive) to dolutegravir or lamivudine or any of the other ingredients of this medicine (listed in section 6).</li><li>If you are taking a medicine called fampridine (also known as dalfampridine; used in multiple sclerosis).</li><li>If you think any of these apply to you, tell your doctor. Warnings and precautions Some people taking Dovato or other combination treatments for HIV are more at risk of serious side effects than others. You need to be aware of the extra risks:</li><li>if you have moderate or severe liver disease if you have ever had liver disease, including hepatitis B or C (if you have hepatitis B infection, don’t stop Dovato without your doctor’s advice, as your hepatitis may come back) • if you have a kidney problem. → Talk to your doctor before using Dovato if any of these apply to you. You may need extra checkups, including blood tests, while you’re taking your medicine. See section 4 for more information. Allergic reactions Dovato contains dolutegravir. Dolutegravir can cause a serious allergic reaction known as a hypersensitivity reaction. You need to know about important signs and symptoms to look out for while you’re taking Dovato. → Read the information ‘Allergic reactions’ in section 4 of this leaflet. Look out for important symptoms Some people taking medicines for HIV infection develop other conditions, which can be serious. These include: • symptoms of infections and inflammation • joint pain, stiffness and bone problems. You need to know about important signs and symptoms to look out for while you’re taking Dovato. → Read the information ‘Other possible side effects’ in section 4 of this leaflet.</li></ul><p><strong>Children</strong></p><p>This medicine is not for use in children under 12 years of age, because it has not been studied in these patients.</p><p><strong>Other medicines and Dovato</strong></p><p>Tell your doctor if you are taking, have recently taken or might take any other medicines.</p><p>Don&#39;t take Dovato with the following medicine:</p><ul><li>fampridine (also known as dalfampridine), used in <strong>multiple sclerosis.</strong></li></ul><p>Some medicines can affect how Dovato works or make it more likely that you will have side effects. Dovato can also affect how some other medicines work.</p><p>Tell your doctor if you are taking any of the medicines in the following list:</p><ul><li>metformin, to treat diabetes</li><li>medicines called antacids, to treat indigestion and heartburn. Do not take an antacid during the 6 hours before you take Dovato, or for at least 2 hours after you take it (see also section 3, ‘How to take Dovato’)</li><li>supplements or multivitamins containing calcium, iron or magnesium. If you take Dovato with food, you can take supplements or multivitamins containing calcium, iron or magnesium at the same time as Dovato. If you do not take Dovato with food, do not take a supplement or multivitamin containing calcium, iron or magnesium during the 6 hours before you take Dovato, or for at least 2 hours after you take it (see also section 3, ‘How to take Dovato’)</li><li>emtricitabine, etravirine, efavirenz, nevirapine or tipranavir/ritonavir, to treat HIV infection</li><li>medicines (usually liquids) containing sorbitol and other sugar alcohols (such as xylitol, mannitol, lactitol or maltitol), if taken regularly</li><li>cladribine, to treat leukaemia or multiple sclerosis</li><li>rifampicin, to treat tuberculosis (TB) and other bacterial infections</li><li>phenytoin and phenobarbital, to treat epilepsy</li><li>oxcarbazepine and carbamazepine, to treat epilepsy or bipolar disorder</li><li><p>St. John’s wort (Hypericum perforatum), a herbal remedy to treat depression.</p></li><li><p>Tell your doctor or pharmacist if you are taking any of these. Your doctor may decide to adjust your dose or that you need extra check ups.</p></li></ul><p><strong>Pregnancy</strong></p><p>If you are pregnant, think you may be pregnant, or if you are planning to have a baby:</p><ul><li>Talk to your doctor about the risks and benefits of taking Dovato.</li></ul><p>Taking Dovato at the time of becoming pregnant or during the first six weeks of pregnancy, may increase the risk of a birth defect, called neural tube defect, such as spina bifida (malformed spinal cord).</p><p>If you could get pregnant while taking Dovato:</p><ul><li>Talk to your doctor and discuss whether there is a need for contraception, such as condom or pills.</li></ul><p>Tell your doctor immediately if you become pregnant or are planning to become pregnant. Your doctor will review your treatment. Do not stop taking Dovato without consulting your doctor, as this may harm you and your unborn child.</p><p><strong>Breast-feeding</strong></p><p>Breast-feeding is not recommended in women living with HIV because HIV infection can be passed on to the baby in breast milk. A small amount of the ingredients in Dovato can also pass into your breast milk. If you are breast-feeding, or thinking about breast-feeding, you should discuss it with your doctor as soon as possible.</p><p><strong>Driving and using machines</strong></p><p>Dovato can make you dizzy, and have other side effects that make you less alert.</p><ul><li>Don’t drive or operate machinery unless you are sure you’re not affected.</li></ul></div>
            </text>
          </section>
          <section>
            <title value="3. How to take Dovato 50 mg/300 mg film-coated tablets"/>
            <code>
              <coding>
                <system value="https://spor.ema.europa.eu/rmswi/"/>
                <code value="100000155538"/>
              </coding>
              <text value="3. How to take Dovato 50 mg/300 mg film-coated tablets"/>
            </code>
            <text>
              <status value="additional"/><div xmlns="http://www.w3.org/1999/xhtml"><p>Always take this medicine exactly as your doctor has told you. Check with your doctor or pharmacist if you are not sure.</p><ul><li>The recommended dose of Dovato is one tablet once a day.</li></ul><p>Swallow the tablet with some liquid. Dovato can be taken with or without food.</p><p><strong>Use in adolescents</strong></p><p>Adolescents aged between 12 and 17 years and weighing at least 40 kg can take the adult dose of one tablet once a day.</p><p><strong>Antacid medicines</strong></p><p>Antacids, to treat indigestion and heartburn, can stop Dovato being absorbed into your body and make it less effective. Do not take an antacid during the 6 hours before you take Dovato, or for at least 2 hours after you take it. You can take other acid-lowering medicines like ranitidine and omeprazole at the same time as Dovato.</p><ul><li>Talk to your doctor for further advice on taking acid-lowering medicines with Dovato.</li></ul><p><strong>Supplements or multivitamins containing calcium, iron or magnesium</strong></p><p>Supplements or multivitamins containing calcium, iron or magnesium can stop Dovato being absorbed into your body and make it less effective. If you take Dovato with food, you can take supplements or multivitamins containing calcium, iron or magnesium at the same time as Dovato. If you do not take Dovato with food, do not take a supplement or multivitamin containing calcium, iron or magnesium during the 6 hours before you take Dovato, or for at least 2 hours after you take it.</p><ul><li>Talk to your doctor for further advice on taking supplements or multivitamins containing calcium, iron or magnesium with Dovato.</li></ul><p><strong>If you take more Dovato than you should</strong></p><p>If you take too many tablets of Dovato contact your doctor or pharmacist for advice. If possible, show them the Dovato pack.</p><p><strong>If you forget to take Dovato</strong></p><p>If you miss a dose, take it as soon as you remember. But if your next dose is due within 4 hours, skip the dose you missed and take the next one at the usual time. Then continue your treatment as before.</p><ul><li>Do not take a double dose to make up for a forgotten dose.</li></ul><p><strong>Don’t stop taking Dovato without advice from your doctor</strong></p><p>Take Dovato for as long as your doctor recommends. Don’t stop unless your doctor tells you to. Stopping Dovato can affect your health and how future treatment works.</p><p>If you have any further questions on the use of this medicine, ask your doctor or pharmacist.</p></div>
            </text>
          </section>
          <section>
            <title value="4. Possible side effects"/>
            <code>
              <coding>
                <system value="https://spor.ema.europa.eu/rmswi/"/>
                <code value="100000155538"/>
              </coding>
              <text value="4. Possible side effects"/>
            </code>
            <text>
              <status value="additional"/><div xmlns="http://www.w3.org/1999/xhtml"><p>Like all medicines, this medicine can cause side effects, although not everybody gets them, so it is very important to talk to your doctor about any changes in your health.</p><p><strong>Allergic reactions</strong></p><p>Dovato contains dolutegravir. Dolutegravir can cause a serious allergic reaction known as a hypersensitivity reaction. This is an uncommon reaction (may affect up to 1 in 100 people) in people taking dolutegravir. If you get any of the following symptoms:</p><ul><li>skin rash</li><li>a high temperature (fever)</li><li>lack of energy (fatigue)</li><li>swelling, sometimes of the face or mouth (angioedema), causing difficulty in breathing</li><li>muscle or joint aches.</li><li>See a doctor straight away. Your doctor may decide to carry out tests to check your liver, kidneys or blood, and may tell you to stop taking Dovato.</li></ul><p><strong>Very common side effects</strong></p><p>These may affect more than 1 in 10 people:</p><ul><li>headache</li><li>diarrhoea</li><li>feeling sick (nausea).</li></ul><p><strong>Common side effects</strong></p><p>These may affect up to 1 in 10 people:</p><ul><li>depression (feelings of deep sadness and unworthiness)</li><li>rash</li><li>itching (pruritus)</li><li>being sick (vomiting)</li><li>stomach (abdominal) pain or discomfort</li><li>weight gain</li><li>wind (flatulence)</li><li>dizziness</li><li>feeling drowsy</li><li>difficulty sleeping (insomnia)</li><li>abnormal dreams</li><li>lack of energy (fatigue)</li><li>hair loss</li><li>anxiety</li><li>joint pain</li><li>muscle pain.</li></ul><p>Common side effects that may show up in blood tests are:</p><ul><li>increase in the level of liver enzymes (aminotransferases)</li><li>increase in the level of enzymes produced in the muscles (creatine phosphokinase).</li></ul><p><strong>Uncommon side effects</strong></p><p>These may affect up to 1 in 100 people:</p><ul><li>inflammation of the liver (hepatitis)</li><li>suicidal attempt (particularly in patients who have had depression or mental health problems before)</li><li>suicidal thoughts (particularly in patients who have had depression or mental health problems before).</li><li>panic attack</li></ul><p>Uncommon side effects that may show up in blood tests are:</p><ul><li>a decreased number of cells involved in blood clotting (thrombocytopenia)</li><li>a low red blood cell count (anaemia) or low white blood cell count (neutropenia).</li></ul><p><strong>Rare side effects</strong></p><p>These may affect up to 1 in 1000 people:</p><ul><li>liver failure (signs may include yellowing of the skin and the whites of the eyes or unusually dark urine)</li><li>swelling, sometimes of the face or mouth (angioedema), causing difficulty in breathing</li><li>inflammation of the pancreas (pancreatitis)</li><li>breakdown of muscle tissue.</li><li>suicide (particularly in patients who have had depression or mental health problems before)</li><li>Tell your doctor immediately if you experience any mental health problems (see also other mental health problems above).</li></ul><p>Rare side effects that may show up in blood tests are:</p><ul><li>increase in bilirubin (a test of liver function)</li><li>increase in an enzyme called amylase.</li></ul><p>Very rare side effects These may affect up to 1 in 10,000 people:</p><ul><li>lactic acidosis (excess lactic acid in the blood)</li><li>numbness, tingly feelings in the skin (pins and needles)</li><li>sensation of weakness in the limbs.</li></ul><p>Very rare side effects that may show up in blood tests are:</p><ul><li>a failure of the bone marrow to produce new red blood cells (pure red cell aplasia).</li></ul><p><strong>Other possible side effects</strong></p><p>People taking combination therapy for HIV may get other side effects.</p><p><strong>Symptoms of infection and inflammation</strong></p><p>People with advanced HIV infection or AIDS have weak immune systems, and are more likely to develop serious infections (opportunistic infections). Such infections may have been “silent” and not detected by the weak immune system before treatment was started. After starting treatment, the immune system becomes stronger, and may attack the infections, which can cause symptoms of infection or inflammation. Symptoms usually include fever, plus some of the following:</p><ul><li>headache</li><li>stomach ache</li><li>difficulty breathing. In rare cases, as the immune system becomes stronger, it can also attack healthy body tissue (autoimmune disorders). The symptoms of autoimmune disorders may develop many months after you start taking medicine to treat your HIV infection. Symptoms may include:</li><li>palpitations (rapid or irregular heartbeat) or tremor</li><li>hyperactivity (excessive restlessness and movement)</li><li>weakness beginning in the hands and feet and moving up towards the trunk of the body. If you get any symptoms of infection or if you notice any of the symptoms above:</li><li>Tell your doctor immediately. Don’t take other medicines for the infection without your doctor’s advice.</li></ul><p><strong>Joint pain, stiffness and bone problems</strong></p><p>Some people taking combination therapy for HIV develop a condition called osteonecrosis. With this condition, parts of the bone tissue are permanently damaged because of reduced blood supply to the bone. People may be more likely to get this condition:</p><ul><li>if they have been taking combination therapy for a long time</li><li>if they are also taking anti-inflammatory medicines called corticosteroids</li><li>if they drink alcohol</li><li>if their immune systems are very weak</li><li>if they are overweight.</li></ul><p><strong>Signs of osteonecrosis include:</strong></p><ul><li>stiffness in the joints</li><li>aches and pains in the joints (especially in the hip, knee or shoulder)</li><li>difficulty moving. If you notice any of these symptoms:</li><li><strong>Tell your doctor.</strong></li></ul><p><strong>Weight, blood lipid and blood glucose effects:</strong></p><p>During HIV therapy there may be an increase in weight and in levels of blood lipids and glucose. This is partly linked to restored health and lifestyle, and sometimes to the HIV medicines themselves. Your doctor will test for these changes.</p><p><strong>Reporting of side effects</strong></p><p>If you get any side effects, talk to your doctor or pharmacist. This includes any possible side effects not listed in this leaflet. You can also report side effects directly via the national reporting system listed in Appendix V. By reporting side effects you can help provide more information on the safety of this medicine.</p></div>
            </text>
          </section>
          <section>
            <title value="5. How to store Dovato 50 mg/300 mg film-coated tablets"/>
            <code>
              <coding>
                <system value="https://spor.ema.europa.eu/rmswi/"/>
                <code value="100000155538"/>
              </coding>
              <text value="5. How to store Dovato 50 mg/300 mg film-coated tablets"/>
            </code>
            <text>
              <status value="additional"/><div xmlns="http://www.w3.org/1999/xhtml"><p>Keep this medicine out of the sight and reach of children.</p><p>Do not use this medicine after the expiry date which is stated on the carton and bottle after EXP. The expiry date refers to the last day of that month.</p><p>This medicine does not require any special storage conditions.</p><p>Do not throw away any medicines via wastewater or household waste. Ask your pharmacist how to throw away medicines you no longer use. These measures will help protect the environment.</p></div>
            </text>
          </section>
          <section>
            <title value="6. Contents of the pack and other information"/>
            <code>
              <coding>
                <system value="https://spor.ema.europa.eu/rmswi/"/>
                <code value="100000155538"/>
              </coding>
              <text value="6. Contents of the pack and other information"/>
            </code>
            <text>
              <status value="additional"/><div xmlns="http://www.w3.org/1999/xhtml"><p>Contents of the pack and other information What Dovato contains</p><ul><li>The active substances are dolutegravir and lamivudine. Each tablet contains dolutegravir sodium equivalent to 50 mg dolutegravir and 300 mg lamivudine.</li><li>The other ingredients are microcrystalline cellulose, sodium starch glycolate, magnesium stearate, mannitol (E421), povidone (K29/32), sodium stearyl fumarate, hypromellose (E464), macrogol, titanium dioxide (E171).</li><li>This medicine contains less than 1 mmol sodium (23 mg) per tablet, that is to say essentially ‘sodiumfree’.</li></ul><p><strong>What Dovato looks like and contents of the pack</strong></p><p>Dovato film-coated tablets are oval, biconvex, white tablets debossed with &#39;SV 137&#39; on one face.</p><p>The film-coated tablets are provided in bottles closed with child-resistant closures.</p><p>Each bottle contains 30 film-coated tablets.</p><p>Multipacks containing 90 film-coated tablets (3 packs of 30 film-coated tablets) are also available. Not all pack sizes may be available in your c ountry</p></div>
            </text>
          </section>
        </section>
      </Composition>
    </resource>
  </entry>
  <entry>
    <fullUrl value="http://hl7.eu/fhir/ig/gravitate-health/Ingredient/ingredient-for-dovato-dolutegravirsodium"/>
    <resource>
      <Ingredient>
        <id value="ingredient-for-dovato-dolutegravirsodium"/>
        <meta>
          <profile value="http://hl7.org/fhir/uv/emedicinal-product-info/StructureDefinition/Ingredient-uv-epi"/>
        </meta>
        <text>
          <status value="generated"/><div xmlns="http://www.w3.org/1999/xhtml"><p><b>Generated Narrative: Ingredient</b><a name="ingredient-for-dovato-dolutegravirsodium"> </a></p><div style="display: inline-block; background-color: #d9e0e7; padding: 6px; margin: 4px; border: 1px solid #8da1b4; border-radius: 5px; line-height: 60%"><p style="margin-bottom: 0px">Resource Ingredient &quot;ingredient-for-dovato-dolutegravirsodium&quot; </p><p style="margin-bottom: 0px">Profile: <a href="https://build.fhir.org/ig/HL7/emedicinal-product-info//StructureDefinition-Ingredient-uv-epi.html">Ingredient (ePI)</a></p></div><p><b>identifier</b>: id: 1Q1V9V5WYQ (use: OFFICIAL)</p><p><b>status</b>: active</p><p><b>for</b>: </p><ul><li><a href="#ManufacturedItemDefinition_mid-49178f16170ee8a6bc2a4361c1748d5f">See above (ManufacturedItemDefinition/mid-49178f16170ee8a6bc2a4361c1748d5f)</a></li><li><a href="#MedicinalProductDefinition_mp16598f252d07b4784b82ba43cf9e847e">See above (MedicinalProductDefinition/mp16598f252d07b4784b82ba43cf9e847e)</a></li><li><a href="#AdministrableProductDefinition_ap-49178f16170ee8a6bc2a4361c1748d5f">See above (AdministrableProductDefinition/ap-49178f16170ee8a6bc2a4361c1748d5f)</a></li></ul><p><b>role</b>: active <span style="background: LightGoldenRodYellow; margin: 4px; border: 1px solid khaki"> (rmswi#72072)</span></p><blockquote><p><b>substance</b></p><h3>Codes</h3><table class="grid"><tr><td style="display: none">-</td><td><b>Concept</b></td></tr><tr><td style="display: none">*</td><td>DOLUTEGRAVIR SODIUM <span style="background: LightGoldenRodYellow; margin: 4px; border: 1px solid khaki"> (beta#1Q1V9V5WYQ)</span></td></tr></table><h3>Strengths</h3><table class="grid"><tr><td style="display: none">-</td><td><b>Presentation[x]</b></td><td><b>Basis</b></td></tr><tr><td style="display: none">*</td><td>50 mg<span style="background: LightGoldenRodYellow"> (Details: UCUM code mg = 'mg')</span></td><td>active ingredient - basis of strength <span style="background: LightGoldenRodYellow; margin: 4px; border: 1px solid khaki"> (<a href="http://terminology.hl7.org/5.3.0/CodeSystem-v3-RoleClass.html">RoleClass</a>#ACTIB)</span></td></tr></table></blockquote></div>
        </text>
        <identifier>
          <use value="official"/>
          <system value="https://gsrs.ncats.nih.gov/ginas/app/beta"/>
          <value value="1Q1V9V5WYQ"/>
        </identifier>
        <status value="active"/>
        <for>
          <reference value="ManufacturedItemDefinition/mid-49178f16170ee8a6bc2a4361c1748d5f"/>
        </for>
        <for>
          <reference value="MedicinalProductDefinition/mp16598f252d07b4784b82ba43cf9e847e"/>
        </for>
        <for>
          <reference value="AdministrableProductDefinition/ap-49178f16170ee8a6bc2a4361c1748d5f"/>
        </for>
        <role>
          <coding>
            <system value="https://spor.ema.europa.eu/rmswi"/>
            <code value="72072"/>
            <display value="active"/>
          </coding>
        </role>
        <substance>
          <code>
            <concept>
              <coding>
                <system value="https://gsrs.ncats.nih.gov/ginas/app/beta"/>
                <code value="1Q1V9V5WYQ"/>
                <display value="DOLUTEGRAVIR SODIUM"/>
              </coding>
            </concept>
          </code>
          <strength>
            <presentationQuantity>
              <value value="50"/>
              <system value="http://unitsofmeasure.org"/>
              <code value="mg"/>
            </presentationQuantity>
            <basis>
              <coding>
                <system value="http://terminology.hl7.org/CodeSystem/v3-RoleClass"/>
                <code value="ACTIB"/>
                <display value="active ingredient - basis of strength"/>
              </coding>
            </basis>
          </strength>
        </substance>
      </Ingredient>
    </resource>
  </entry>
  <entry>
    <fullUrl value="http://hl7.eu/fhir/ig/gravitate-health/Ingredient/ingredient-for-dovato-lamivudine"/>
    <resource>
      <Ingredient>
        <id value="ingredient-for-dovato-lamivudine"/>
        <meta>
          <profile value="http://hl7.org/fhir/uv/emedicinal-product-info/StructureDefinition/Ingredient-uv-epi"/>
        </meta>
        <text>
          <status value="generated"/><div xmlns="http://www.w3.org/1999/xhtml"><p><b>Generated Narrative: Ingredient</b><a name="ingredient-for-dovato-lamivudine"> </a></p><div style="display: inline-block; background-color: #d9e0e7; padding: 6px; margin: 4px; border: 1px solid #8da1b4; border-radius: 5px; line-height: 60%"><p style="margin-bottom: 0px">Resource Ingredient &quot;ingredient-for-dovato-lamivudine&quot; </p><p style="margin-bottom: 0px">Profile: <a href="https://build.fhir.org/ig/HL7/emedicinal-product-info//StructureDefinition-Ingredient-uv-epi.html">Ingredient (ePI)</a></p></div><p><b>identifier</b>: id: 2T8Q726O95 (use: OFFICIAL)</p><p><b>status</b>: active</p><p><b>for</b>: </p><ul><li><a href="#ManufacturedItemDefinition_mid-49178f16170ee8a6bc2a4361c1748d5f">See above (ManufacturedItemDefinition/mid-49178f16170ee8a6bc2a4361c1748d5f)</a></li><li><a href="#MedicinalProductDefinition_mp16598f252d07b4784b82ba43cf9e847e">See above (MedicinalProductDefinition/mp16598f252d07b4784b82ba43cf9e847e)</a></li><li><a href="#AdministrableProductDefinition_ap-49178f16170ee8a6bc2a4361c1748d5f">See above (AdministrableProductDefinition/ap-49178f16170ee8a6bc2a4361c1748d5f)</a></li></ul><p><b>role</b>: active <span style="background: LightGoldenRodYellow; margin: 4px; border: 1px solid khaki"> (rmswi#72072)</span></p><blockquote><p><b>substance</b></p><h3>Codes</h3><table class="grid"><tr><td style="display: none">-</td><td><b>Concept</b></td></tr><tr><td style="display: none">*</td><td>lamivudine <span style="background: LightGoldenRodYellow; margin: 4px; border: 1px solid khaki"> (beta#2T8Q726O95)</span></td></tr></table><h3>Strengths</h3><table class="grid"><tr><td style="display: none">-</td><td><b>Presentation[x]</b></td><td><b>Basis</b></td></tr><tr><td style="display: none">*</td><td>300 mg<span style="background: LightGoldenRodYellow"> (Details: UCUM code mg = 'mg')</span></td><td>active ingredient - basis of strength <span style="background: LightGoldenRodYellow; margin: 4px; border: 1px solid khaki"> (<a href="http://terminology.hl7.org/5.3.0/CodeSystem-v3-RoleClass.html">RoleClass</a>#ACTIB)</span></td></tr></table></blockquote></div>
        </text>
        <identifier>
          <use value="official"/>
          <system value="https://gsrs.ncats.nih.gov/ginas/app/beta"/>
          <value value="2T8Q726O95"/>
        </identifier>
        <status value="active"/>
        <for>
          <reference value="ManufacturedItemDefinition/mid-49178f16170ee8a6bc2a4361c1748d5f"/>
        </for>
        <for>
          <reference value="MedicinalProductDefinition/mp16598f252d07b4784b82ba43cf9e847e"/>
        </for>
        <for>
          <reference value="AdministrableProductDefinition/ap-49178f16170ee8a6bc2a4361c1748d5f"/>
        </for>
        <role>
          <coding>
            <system value="https://spor.ema.europa.eu/rmswi"/>
            <code value="72072"/>
            <display value="active"/>
          </coding>
        </role>
        <substance>
          <code>
            <concept>
              <coding>
                <system value="https://gsrs.ncats.nih.gov/ginas/app/beta"/>
                <code value="2T8Q726O95"/>
                <display value="lamivudine"/>
              </coding>
            </concept>
          </code>
          <strength>
            <presentationQuantity>
              <value value="300"/>
              <system value="http://unitsofmeasure.org"/>
              <code value="mg"/>
            </presentationQuantity>
            <basis>
              <coding>
                <system value="http://terminology.hl7.org/CodeSystem/v3-RoleClass"/>
                <code value="ACTIB"/>
                <display value="active ingredient - basis of strength"/>
              </coding>
            </basis>
          </strength>
        </substance>
      </Ingredient>
    </resource>
  </entry>
  <entry>
    <fullUrl value="http://hl7.eu/fhir/ig/gravitate-health/Ingredient/ingredient-for-dovato-microcrystallinecellulose"/>
    <resource>
      <Ingredient>
        <id value="ingredient-for-dovato-microcrystallinecellulose"/>
        <meta>
          <profile value="http://hl7.org/fhir/uv/emedicinal-product-info/StructureDefinition/Ingredient-uv-epi"/>
        </meta>
        <text>
          <status value="generated"/><div xmlns="http://www.w3.org/1999/xhtml"><p><b>Generated Narrative: Ingredient</b><a name="ingredient-for-dovato-microcrystallinecellulose"> </a></p><div style="display: inline-block; background-color: #d9e0e7; padding: 6px; margin: 4px; border: 1px solid #8da1b4; border-radius: 5px; line-height: 60%"><p style="margin-bottom: 0px">Resource Ingredient &quot;ingredient-for-dovato-microcrystallinecellulose&quot; </p><p style="margin-bottom: 0px">Profile: <a href="https://build.fhir.org/ig/HL7/emedicinal-product-info//StructureDefinition-Ingredient-uv-epi.html">Ingredient (ePI)</a></p></div><p><b>identifier</b>: id: OP1R32D61U (use: OFFICIAL)</p><p><b>status</b>: active</p><p><b>for</b>: </p><ul><li><a href="#ManufacturedItemDefinition_mid-49178f16170ee8a6bc2a4361c1748d5f">See above (ManufacturedItemDefinition/mid-49178f16170ee8a6bc2a4361c1748d5f)</a></li><li><a href="#MedicinalProductDefinition_mp16598f252d07b4784b82ba43cf9e847e">See above (MedicinalProductDefinition/mp16598f252d07b4784b82ba43cf9e847e)</a></li><li><a href="#AdministrableProductDefinition_ap-49178f16170ee8a6bc2a4361c1748d5f">See above (AdministrableProductDefinition/ap-49178f16170ee8a6bc2a4361c1748d5f)</a></li></ul><p><b>role</b>: Excipient <span style="background: LightGoldenRodYellow; margin: 4px; border: 1px solid khaki"> (rmswi#100000072082)</span></p><blockquote><p><b>substance</b></p><h3>Codes</h3><table class="grid"><tr><td style="display: none">-</td><td><b>Concept</b></td></tr><tr><td style="display: none">*</td><td>microcrystalline cellulose <span style="background: LightGoldenRodYellow; margin: 4px; border: 1px solid khaki"> (beta#OP1R32D61U)</span></td></tr></table></blockquote></div>
        </text>
        <identifier>
          <use value="official"/>
          <system value="https://gsrs.ncats.nih.gov/ginas/app/beta"/>
          <value value="OP1R32D61U"/>
        </identifier>
        <status value="active"/>
        <for>
          <reference value="ManufacturedItemDefinition/mid-49178f16170ee8a6bc2a4361c1748d5f"/>
        </for>
        <for>
          <reference value="MedicinalProductDefinition/mp16598f252d07b4784b82ba43cf9e847e"/>
        </for>
        <for>
          <reference value="AdministrableProductDefinition/ap-49178f16170ee8a6bc2a4361c1748d5f"/>
        </for>
        <role>
          <coding>
            <system value="https://spor.ema.europa.eu/rmswi"/>
            <code value="100000072082"/>
            <display value="Excipient"/>
          </coding>
        </role>
        <substance>
          <code>
            <concept>
              <coding>
                <system value="https://gsrs.ncats.nih.gov/ginas/app/beta"/>
                <code value="OP1R32D61U"/>
                <display value="microcrystalline cellulose"/>
              </coding>
            </concept>
          </code>
        </substance>
      </Ingredient>
    </resource>
  </entry>
  <entry>
    <fullUrl value="http://hl7.eu/fhir/ig/gravitate-health/Ingredient/ingredient-for-dovato-sodiumstarchglycolate"/>
    <resource>
      <Ingredient>
        <id value="ingredient-for-dovato-sodiumstarchglycolate"/>
        <meta>
          <profile value="http://hl7.org/fhir/uv/emedicinal-product-info/StructureDefinition/Ingredient-uv-epi"/>
        </meta>
        <text>
          <status value="generated"/><div xmlns="http://www.w3.org/1999/xhtml"><p><b>Generated Narrative: Ingredient</b><a name="ingredient-for-dovato-sodiumstarchglycolate"> </a></p><div style="display: inline-block; background-color: #d9e0e7; padding: 6px; margin: 4px; border: 1px solid #8da1b4; border-radius: 5px; line-height: 60%"><p style="margin-bottom: 0px">Resource Ingredient &quot;ingredient-for-dovato-sodiumstarchglycolate&quot; </p><p style="margin-bottom: 0px">Profile: <a href="https://build.fhir.org/ig/HL7/emedicinal-product-info//StructureDefinition-Ingredient-uv-epi.html">Ingredient (ePI)</a></p></div><p><b>identifier</b>: id: H8AV0SQX4D (use: OFFICIAL)</p><p><b>status</b>: active</p><p><b>for</b>: </p><ul><li><a href="#ManufacturedItemDefinition_mid-49178f16170ee8a6bc2a4361c1748d5f">See above (ManufacturedItemDefinition/mid-49178f16170ee8a6bc2a4361c1748d5f)</a></li><li><a href="#MedicinalProductDefinition_mp16598f252d07b4784b82ba43cf9e847e">See above (MedicinalProductDefinition/mp16598f252d07b4784b82ba43cf9e847e)</a></li><li><a href="#AdministrableProductDefinition_ap-49178f16170ee8a6bc2a4361c1748d5f">See above (AdministrableProductDefinition/ap-49178f16170ee8a6bc2a4361c1748d5f)</a></li></ul><p><b>role</b>: Excipient <span style="background: LightGoldenRodYellow; margin: 4px; border: 1px solid khaki"> (rmswi#100000072082)</span></p><blockquote><p><b>substance</b></p><h3>Codes</h3><table class="grid"><tr><td style="display: none">-</td><td><b>Concept</b></td></tr><tr><td style="display: none">*</td><td>sodium starch glycolate <span style="background: LightGoldenRodYellow; margin: 4px; border: 1px solid khaki"> (beta#H8AV0SQX4D)</span></td></tr></table></blockquote></div>
        </text>
        <identifier>
          <use value="official"/>
          <system value="https://gsrs.ncats.nih.gov/ginas/app/beta"/>
          <value value="H8AV0SQX4D"/>
        </identifier>
        <status value="active"/>
        <for>
          <reference value="ManufacturedItemDefinition/mid-49178f16170ee8a6bc2a4361c1748d5f"/>
        </for>
        <for>
          <reference value="MedicinalProductDefinition/mp16598f252d07b4784b82ba43cf9e847e"/>
        </for>
        <for>
          <reference value="AdministrableProductDefinition/ap-49178f16170ee8a6bc2a4361c1748d5f"/>
        </for>
        <role>
          <coding>
            <system value="https://spor.ema.europa.eu/rmswi"/>
            <code value="100000072082"/>
            <display value="Excipient"/>
          </coding>
        </role>
        <substance>
          <code>
            <concept>
              <coding>
                <system value="https://gsrs.ncats.nih.gov/ginas/app/beta"/>
                <code value="H8AV0SQX4D"/>
                <display value="sodium starch glycolate"/>
              </coding>
            </concept>
          </code>
        </substance>
      </Ingredient>
    </resource>
  </entry>
  <entry>
    <fullUrl value="http://hl7.eu/fhir/ig/gravitate-health/Ingredient/ingredient-for-dovato-magnesiumstearate"/>
    <resource>
      <Ingredient>
        <id value="ingredient-for-dovato-magnesiumstearate"/>
        <meta>
          <profile value="http://hl7.org/fhir/uv/emedicinal-product-info/StructureDefinition/Ingredient-uv-epi"/>
        </meta>
        <text>
          <status value="generated"/><div xmlns="http://www.w3.org/1999/xhtml"><p><b>Generated Narrative: Ingredient</b><a name="ingredient-for-dovato-magnesiumstearate"> </a></p><div style="display: inline-block; background-color: #d9e0e7; padding: 6px; margin: 4px; border: 1px solid #8da1b4; border-radius: 5px; line-height: 60%"><p style="margin-bottom: 0px">Resource Ingredient &quot;ingredient-for-dovato-magnesiumstearate&quot; </p><p style="margin-bottom: 0px">Profile: <a href="https://build.fhir.org/ig/HL7/emedicinal-product-info//StructureDefinition-Ingredient-uv-epi.html">Ingredient (ePI)</a></p></div><p><b>identifier</b>: id: 70097M6I30 (use: OFFICIAL)</p><p><b>status</b>: active</p><p><b>for</b>: </p><ul><li><a href="#ManufacturedItemDefinition_mid-49178f16170ee8a6bc2a4361c1748d5f">See above (ManufacturedItemDefinition/mid-49178f16170ee8a6bc2a4361c1748d5f)</a></li><li><a href="#MedicinalProductDefinition_mp16598f252d07b4784b82ba43cf9e847e">See above (MedicinalProductDefinition/mp16598f252d07b4784b82ba43cf9e847e)</a></li><li><a href="#AdministrableProductDefinition_ap-49178f16170ee8a6bc2a4361c1748d5f">See above (AdministrableProductDefinition/ap-49178f16170ee8a6bc2a4361c1748d5f)</a></li></ul><p><b>role</b>: Excipient <span style="background: LightGoldenRodYellow; margin: 4px; border: 1px solid khaki"> (rmswi#100000072082)</span></p><blockquote><p><b>substance</b></p><h3>Codes</h3><table class="grid"><tr><td style="display: none">-</td><td><b>Concept</b></td></tr><tr><td style="display: none">*</td><td>magnesium stearate <span style="background: LightGoldenRodYellow; margin: 4px; border: 1px solid khaki"> (beta#70097M6I30)</span></td></tr></table></blockquote></div>
        </text>
        <identifier>
          <use value="official"/>
          <system value="https://gsrs.ncats.nih.gov/ginas/app/beta"/>
          <value value="70097M6I30"/>
        </identifier>
        <status value="active"/>
        <for>
          <reference value="ManufacturedItemDefinition/mid-49178f16170ee8a6bc2a4361c1748d5f"/>
        </for>
        <for>
          <reference value="MedicinalProductDefinition/mp16598f252d07b4784b82ba43cf9e847e"/>
        </for>
        <for>
          <reference value="AdministrableProductDefinition/ap-49178f16170ee8a6bc2a4361c1748d5f"/>
        </for>
        <role>
          <coding>
            <system value="https://spor.ema.europa.eu/rmswi"/>
            <code value="100000072082"/>
            <display value="Excipient"/>
          </coding>
        </role>
        <substance>
          <code>
            <concept>
              <coding>
                <system value="https://gsrs.ncats.nih.gov/ginas/app/beta"/>
                <code value="70097M6I30"/>
                <display value="magnesium stearate"/>
              </coding>
            </concept>
          </code>
        </substance>
      </Ingredient>
    </resource>
  </entry>
  <entry>
    <fullUrl value="http://hl7.eu/fhir/ig/gravitate-health/Ingredient/ingredient-for-dovato-mannitol"/>
    <resource>
      <Ingredient>
        <id value="ingredient-for-dovato-mannitol"/>
        <meta>
          <profile value="http://hl7.org/fhir/uv/emedicinal-product-info/StructureDefinition/Ingredient-uv-epi"/>
        </meta>
        <text>
          <status value="generated"/><div xmlns="http://www.w3.org/1999/xhtml"><p><b>Generated Narrative: Ingredient</b><a name="ingredient-for-dovato-mannitol"> </a></p><div style="display: inline-block; background-color: #d9e0e7; padding: 6px; margin: 4px; border: 1px solid #8da1b4; border-radius: 5px; line-height: 60%"><p style="margin-bottom: 0px">Resource Ingredient &quot;ingredient-for-dovato-mannitol&quot; </p><p style="margin-bottom: 0px">Profile: <a href="https://build.fhir.org/ig/HL7/emedicinal-product-info//StructureDefinition-Ingredient-uv-epi.html">Ingredient (ePI)</a></p></div><p><b>identifier</b>: id: 3OWL53L36A (use: OFFICIAL)</p><p><b>status</b>: active</p><p><b>for</b>: </p><ul><li><a href="#ManufacturedItemDefinition_mid-49178f16170ee8a6bc2a4361c1748d5f">See above (ManufacturedItemDefinition/mid-49178f16170ee8a6bc2a4361c1748d5f)</a></li><li><a href="#MedicinalProductDefinition_mp16598f252d07b4784b82ba43cf9e847e">See above (MedicinalProductDefinition/mp16598f252d07b4784b82ba43cf9e847e)</a></li><li><a href="#AdministrableProductDefinition_ap-49178f16170ee8a6bc2a4361c1748d5f">See above (AdministrableProductDefinition/ap-49178f16170ee8a6bc2a4361c1748d5f)</a></li></ul><p><b>role</b>: Excipient <span style="background: LightGoldenRodYellow; margin: 4px; border: 1px solid khaki"> (rmswi#100000072082)</span></p><blockquote><p><b>substance</b></p><h3>Codes</h3><table class="grid"><tr><td style="display: none">-</td><td><b>Concept</b></td></tr><tr><td style="display: none">*</td><td>mannitol <span style="background: LightGoldenRodYellow; margin: 4px; border: 1px solid khaki"> (beta#3OWL53L36A)</span></td></tr></table></blockquote></div>
        </text>
        <identifier>
          <use value="official"/>
          <system value="https://gsrs.ncats.nih.gov/ginas/app/beta"/>
          <value value="3OWL53L36A"/>
        </identifier>
        <status value="active"/>
        <for>
          <reference value="ManufacturedItemDefinition/mid-49178f16170ee8a6bc2a4361c1748d5f"/>
        </for>
        <for>
          <reference value="MedicinalProductDefinition/mp16598f252d07b4784b82ba43cf9e847e"/>
        </for>
        <for>
          <reference value="AdministrableProductDefinition/ap-49178f16170ee8a6bc2a4361c1748d5f"/>
        </for>
        <role>
          <coding>
            <system value="https://spor.ema.europa.eu/rmswi"/>
            <code value="100000072082"/>
            <display value="Excipient"/>
          </coding>
        </role>
        <substance>
          <code>
            <concept>
              <coding>
                <system value="https://gsrs.ncats.nih.gov/ginas/app/beta"/>
                <code value="3OWL53L36A"/>
                <display value="mannitol"/>
              </coding>
            </concept>
          </code>
        </substance>
      </Ingredient>
    </resource>
  </entry>
  <entry>
    <fullUrl value="http://hl7.eu/fhir/ig/gravitate-health/SubstanceDefinition/substance-dolutegravirsodium"/>
    <resource>
      <SubstanceDefinition>
        <id value="substance-dolutegravirsodium"/>
        <meta>
          <profile value="http://hl7.org/fhir/uv/emedicinal-product-info/StructureDefinition/SubstanceDefinition-uv-epi"/>
        </meta>
        <text>
          <status value="generated"/><div xmlns="http://www.w3.org/1999/xhtml"><p><b>Generated Narrative: SubstanceDefinition</b><a name="substance-dolutegravirsodium"> </a></p><div style="display: inline-block; background-color: #d9e0e7; padding: 6px; margin: 4px; border: 1px solid #8da1b4; border-radius: 5px; line-height: 60%"><p style="margin-bottom: 0px">Resource SubstanceDefinition &quot;substance-dolutegravirsodium&quot; </p><p style="margin-bottom: 0px">Profile: <a href="https://build.fhir.org/ig/HL7/emedicinal-product-info//StructureDefinition-SubstanceDefinition-uv-epi.html">SubstanceDefinition (ePI)</a></p></div><p><b>identifier</b>: id: 1Q1V9V5WYQ (use: OFFICIAL)</p><p><b>version</b>: 1</p><p><b>status</b>: Active <span style="background: LightGoldenRodYellow; margin: 4px; border: 1px solid khaki"> (<a href="http://hl7.org/fhir/R5/codesystem-publication-status.html">PublicationStatus</a>#active)</span></p><p><b>manufacturer</b>: <a href="#Organization_man-173fde4cb6b1018cb7ec8ab708d3961c">See above (Organization/man-173fde4cb6b1018cb7ec8ab708d3961c)</a></p><h3>MolecularWeights</h3><table class="grid"><tr><td style="display: none">-</td><td><b>Type</b></td><td><b>Amount</b></td></tr><tr><td style="display: none">*</td><td>exact <span style="background: LightGoldenRodYellow; margin: 4px; border: 1px solid khaki"> ()</span></td><td>441.36</td></tr></table><h3>Structures</h3><table class="grid"><tr><td style="display: none">-</td><td><b>MolecularFormula</b></td></tr><tr><td style="display: none">*</td><td>C20H18F2N305.Na</td></tr></table><h3>Names</h3><table class="grid"><tr><td style="display: none">-</td><td><b>Name</b></td><td><b>Type</b></td></tr><tr><td style="display: none">*</td><td>(4R,12.ALPHA.S)-N-((2,4-DIFLUOROPHENYL)METHYL)-7-HYDROXY-4-METHYL-6,8-DIOXO-3,4,6,8,12,12.ALPHA.-HEXAHYDRO-2H-PYRIDO(1',2':4,5)PYRAZINO(2,1-.BETA.)(1,3)OXAZINE-9-CARBOXAMIDE</td><td>Chemical Name <span style="background: LightGoldenRodYellow; margin: 4px; border: 1px solid khaki"> (#x)</span></td></tr></table></div>
        </text>
        <identifier>
          <use value="official"/>
          <system value="https://gsrs.ncats.nih.gov/ginas/app/beta/"/>
          <value value="1Q1V9V5WYQ"/>
        </identifier>
        <version value="1"/>
        <status>
          <coding>
            <system value="http://hl7.org/fhir/publication-status"/>
            <code value="active"/>
          </coding>
        </status>
        <manufacturer>
          <reference value="Organization/man-173fde4cb6b1018cb7ec8ab708d3961c"/>
        </manufacturer>
        <molecularWeight>
          <type>
            <text value="exact"/>
          </type>
          <amount>
            <value value="441.36"/>
          </amount>
        </molecularWeight>
        <structure>
          <molecularFormula value="C20H18F2N305.Na"/>
        </structure>
        <name>
          <name value="(4R,12.ALPHA.S)-N-((2,4-DIFLUOROPHENYL)METHYL)-7-HYDROXY-4-METHYL-6,8-DIOXO-3,4,6,8,12,12.ALPHA.-HEXAHYDRO-2H-PYRIDO(1',2':4,5)PYRAZINO(2,1-.BETA.)(1,3)OXAZINE-9-CARBOXAMIDE"/>
          <type>
            <coding>
              <system value="https://gsrs.ncats.nih.gov/ginas/app/beta/"/>
              <code value="x"/>
              <display value="Chemical Name"/>
            </coding>
          </type>
        </name>
      </SubstanceDefinition>
    </resource>
  </entry>
  <entry>
    <fullUrl value="http://hl7.eu/fhir/ig/gravitate-health/SubstanceDefinition/substance-lamivudine"/>
    <resource>
      <SubstanceDefinition>
        <id value="substance-lamivudine"/>
        <meta>
          <profile value="http://hl7.org/fhir/uv/emedicinal-product-info/StructureDefinition/SubstanceDefinition-uv-epi"/>
        </meta>
        <text>
          <status value="generated"/><div xmlns="http://www.w3.org/1999/xhtml"><p><b>Generated Narrative: SubstanceDefinition</b><a name="substance-lamivudine"> </a></p><div style="display: inline-block; background-color: #d9e0e7; padding: 6px; margin: 4px; border: 1px solid #8da1b4; border-radius: 5px; line-height: 60%"><p style="margin-bottom: 0px">Resource SubstanceDefinition &quot;substance-lamivudine&quot; </p><p style="margin-bottom: 0px">Profile: <a href="https://build.fhir.org/ig/HL7/emedicinal-product-info//StructureDefinition-SubstanceDefinition-uv-epi.html">SubstanceDefinition (ePI)</a></p></div><p><b>identifier</b>: id: 2T8Q726O95 (use: OFFICIAL)</p><p><b>version</b>: 1</p><p><b>status</b>: Active <span style="background: LightGoldenRodYellow; margin: 4px; border: 1px solid khaki"> (<a href="http://hl7.org/fhir/R5/codesystem-publication-status.html">PublicationStatus</a>#active)</span></p><p><b>manufacturer</b>: <a href="#Organization_man-173fde4cb6b1018cb7ec8ab708d3961c">See above (Organization/man-173fde4cb6b1018cb7ec8ab708d3961c)</a></p><h3>MolecularWeights</h3><table class="grid"><tr><td style="display: none">-</td><td><b>Type</b></td><td><b>Amount</b></td></tr><tr><td style="display: none">*</td><td>exact <span style="background: LightGoldenRodYellow; margin: 4px; border: 1px solid khaki"> ()</span></td><td>229.26</td></tr></table><h3>Structures</h3><table class="grid"><tr><td style="display: none">-</td><td><b>MolecularFormula</b></td></tr><tr><td style="display: none">*</td><td>C8H11N303S</td></tr></table><h3>Names</h3><table class="grid"><tr><td style="display: none">-</td><td><b>Name</b></td><td><b>Type</b></td></tr><tr><td style="display: none">*</td><td>(-)-1-((2R,5S)-2-(HYDROXYMETHYL)-1,3-OXATHIOLAN-5-YL)CYTOSINE</td><td>Chemical Name <span style="background: LightGoldenRodYellow; margin: 4px; border: 1px solid khaki"> (#x)</span></td></tr></table></div>
        </text>
        <identifier>
          <use value="official"/>
          <system value="https://gsrs.ncats.nih.gov/ginas/app/beta/"/>
          <value value="2T8Q726O95"/>
        </identifier>
        <version value="1"/>
        <status>
          <coding>
            <system value="http://hl7.org/fhir/publication-status"/>
            <code value="active"/>
          </coding>
        </status>
        <manufacturer>
          <reference value="Organization/man-173fde4cb6b1018cb7ec8ab708d3961c"/>
        </manufacturer>
        <molecularWeight>
          <type>
            <text value="exact"/>
          </type>
          <amount>
            <value value="229.26"/>
          </amount>
        </molecularWeight>
        <structure>
          <molecularFormula value="C8H11N303S"/>
        </structure>
        <name>
          <name value="(-)-1-((2R,5S)-2-(HYDROXYMETHYL)-1,3-OXATHIOLAN-5-YL)CYTOSINE"/>
          <type>
            <coding>
              <system value="https://gsrs.ncats.nih.gov/ginas/app/beta/"/>
              <code value="x"/>
              <display value="Chemical Name"/>
            </coding>
          </type>
        </name>
      </SubstanceDefinition>
    </resource>
  </entry>
  <entry>
    <fullUrl value="http://hl7.eu/fhir/ig/gravitate-health/AdministrableProductDefinition/ap-49178f16170ee8a6bc2a4361c1748d5f"/>
    <resource>
      <AdministrableProductDefinition>
        <id value="ap-49178f16170ee8a6bc2a4361c1748d5f"/>
        <meta>
          <profile value="http://hl7.org/fhir/uv/emedicinal-product-info/StructureDefinition/AdministrableProductDefinition-uv-epi"/>
        </meta>
        <text>
          <status value="generated"/><div xmlns="http://www.w3.org/1999/xhtml"><p><b>Generated Narrative: AdministrableProductDefinition</b><a name="ap-49178f16170ee8a6bc2a4361c1748d5f"> </a></p><div style="display: inline-block; background-color: #d9e0e7; padding: 6px; margin: 4px; border: 1px solid #8da1b4; border-radius: 5px; line-height: 60%"><p style="margin-bottom: 0px">Resource AdministrableProductDefinition &quot;ap-49178f16170ee8a6bc2a4361c1748d5f&quot; </p><p style="margin-bottom: 0px">Profile: <a href="https://build.fhir.org/ig/HL7/emedicinal-product-info//StructureDefinition-AdministrableProductDefinition-uv-epi.html">AdministrableProductDefinition (ePI)</a></p></div><p><b>identifier</b>: id: 123456</p><p><b>status</b>: active</p><p><b>formOf</b>: <a href="#MedicinalProductDefinition_mp16598f252d07b4784b82ba43cf9e847e">See above (MedicinalProductDefinition/mp16598f252d07b4784b82ba43cf9e847e)</a></p><p><b>administrableDoseForm</b>: tablet <span style="background: LightGoldenRodYellow; margin: 4px; border: 1px solid khaki"> (rmswi#200000002152)</span></p><p><b>unitOfPresentation</b>: tablet <span style="background: LightGoldenRodYellow; margin: 4px; border: 1px solid khaki"> (rmswi#200000002152)</span></p><p><b>producedFrom</b>: <a href="#ManufacturedItemDefinition_mid-49178f16170ee8a6bc2a4361c1748d5f">See above (ManufacturedItemDefinition/mid-49178f16170ee8a6bc2a4361c1748d5f)</a></p><blockquote><p><b>routeOfAdministration</b></p><p><b>code</b>: Oral use <span style="background: LightGoldenRodYellow; margin: 4px; border: 1px solid khaki"> (rmswi#100000073619)</span></p><h3>TargetSpecies</h3><table class="grid"><tr><td style="display: none">-</td><td><b>Code</b></td></tr><tr><td style="display: none">*</td><td>Human <span style="background: LightGoldenRodYellow; margin: 4px; border: 1px solid khaki"> (rmswi#100000109093)</span></td></tr></table></blockquote></div>
        </text>
        <identifier>
          <system value="https://spor.ema.europa.eu/pmswi"/>
          <value value="123456"/>
        </identifier>
        <status value="active"/>
        <formOf>
          <reference value="MedicinalProductDefinition/mp16598f252d07b4784b82ba43cf9e847e"/>
        </formOf>
        <administrableDoseForm>
          <coding>
            <system value="https://spor.ema.europa.eu/rmswi"/>
            <code value="200000002152"/>
            <display value="tablet"/>
          </coding>
        </administrableDoseForm>
        <unitOfPresentation>
          <coding>
            <system value="https://spor.ema.europa.eu/rmswi"/>
            <code value="200000002152"/>
            <display value="tablet"/>
          </coding>
        </unitOfPresentation>
        <producedFrom>
          <reference value="ManufacturedItemDefinition/mid-49178f16170ee8a6bc2a4361c1748d5f"/>
        </producedFrom>
        <routeOfAdministration>
          <code>
            <coding>
              <system value="https://spor.ema.europa.eu/rmswi"/>
              <code value="100000073619"/>
              <display value="Oral use"/>
            </coding>
          </code>
          <targetSpecies>
            <code>
              <coding>
                <system value="https://spor.ema.europa.eu/rmswi"/>
                <code value="100000109093"/>
                <display value="Human"/>
              </coding>
            </code>
          </targetSpecies>
        </routeOfAdministration>
      </AdministrableProductDefinition>
    </resource>
  </entry>
  <entry>
    <fullUrl value="http://hl7.eu/fhir/ig/gravitate-health/RegulatedAuthorization/authorization49178f16170ee8a6bc2a4361c1748d5f"/>
    <resource>
      <RegulatedAuthorization>
        <id value="authorization49178f16170ee8a6bc2a4361c1748d5f"/>
        <meta>
          <profile value="http://hl7.org/fhir/uv/emedicinal-product-info/StructureDefinition/RegulatedAuthorization-uv-epi"/>
        </meta>
        <text>
          <status value="generated"/><div xmlns="http://www.w3.org/1999/xhtml"><p><b>Generated Narrative: RegulatedAuthorization</b><a name="authorization49178f16170ee8a6bc2a4361c1748d5f"> </a></p><div style="display: inline-block; background-color: #d9e0e7; padding: 6px; margin: 4px; border: 1px solid #8da1b4; border-radius: 5px; line-height: 60%"><p style="margin-bottom: 0px">Resource RegulatedAuthorization &quot;authorization49178f16170ee8a6bc2a4361c1748d5f&quot; </p><p style="margin-bottom: 0px">Profile: <a href="https://build.fhir.org/ig/HL7/emedicinal-product-info//StructureDefinition-RegulatedAuthorization-uv-epi.html">RegulatedAuthorization (ePI)</a></p></div><p><b>identifier</b>: id: EU/1/19/1370/001 (use: OFFICIAL)</p><p><b>subject</b>: <a href="#MedicinalProductDefinition_mp16598f252d07b4784b82ba43cf9e847e">See above (MedicinalProductDefinition/mp16598f252d07b4784b82ba43cf9e847e)</a></p><p><b>type</b>: Marketing Authorisation <span style="background: LightGoldenRodYellow; margin: 4px; border: 1px solid khaki"> (rmswi#100000072062)</span></p><p><b>status</b>: Active <span style="background: LightGoldenRodYellow; margin: 4px; border: 1px solid khaki"> (<a href="http://hl7.org/fhir/R5/codesystem-publication-status.html">PublicationStatus</a>#active)</span></p><p><b>statusDate</b>: 2019-07-01 13:28:17+0000</p><p><b>holder</b>: <a href="#Organization_mah-31ff1af739c7dcf77386a86f8dd83d29">See above (Organization/mah-31ff1af739c7dcf77386a86f8dd83d29)</a></p><p><b>regulator</b>: <a href="#Organization_mra-7c9b97127f73ff3605a10eb1c2cc24d1">See above (Organization/mra-7c9b97127f73ff3605a10eb1c2cc24d1)</a></p></div>
        </text>
        <identifier>
          <use value="official"/>
          <system value="https://spor.ema.europa.eu/pmswi"/>
          <value value="EU/1/19/1370/001"/>
        </identifier>
        <subject>
          <reference value="MedicinalProductDefinition/mp16598f252d07b4784b82ba43cf9e847e"/>
        </subject>
        <type>
          <coding>
            <system value="https://spor.ema.europa.eu/rmswi"/>
            <code value="100000072062"/>
            <display value="Marketing Authorisation"/>
          </coding>
        </type>
        <status>
          <coding>
            <system value="http://hl7.org/fhir/publication-status"/>
            <code value="active"/>
            <display value="Active"/>
          </coding>
        </status>
        <statusDate value="2019-07-01T13:28:17Z"/>
        <holder>
          <reference value="Organization/mah-31ff1af739c7dcf77386a86f8dd83d29"/>
        </holder>
        <regulator>
          <reference value="Organization/mra-7c9b97127f73ff3605a10eb1c2cc24d1"/>
        </regulator>
      </RegulatedAuthorization>
    </resource>
  </entry>
  <entry>
    <fullUrl value="http://hl7.eu/fhir/ig/gravitate-health/Organization/man-173fde4cb6b1018cb7ec8ab708d3961c"/>
    <resource>
      <Organization>
        <id value="man-173fde4cb6b1018cb7ec8ab708d3961c"/>
        <meta>
          <profile value="http://hl7.org/fhir/uv/emedicinal-product-info/StructureDefinition/Organization-uv-epi"/>
        </meta>
        <text>
          <status value="generated"/><div xmlns="http://www.w3.org/1999/xhtml"><p><b>Generated Narrative: Organization</b><a name="man-173fde4cb6b1018cb7ec8ab708d3961c"> </a></p><div style="display: inline-block; background-color: #d9e0e7; padding: 6px; margin: 4px; border: 1px solid #8da1b4; border-radius: 5px; line-height: 60%"><p style="margin-bottom: 0px">Resource Organization &quot;man-173fde4cb6b1018cb7ec8ab708d3961c&quot; </p><p style="margin-bottom: 0px">Profile: <a href="https://build.fhir.org/ig/HL7/emedicinal-product-info//StructureDefinition-Organization-uv-epi.html">Organization (ePI)</a></p></div><p><b>identifier</b>: id: ORG-100004538 (use: OFFICIAL)</p><p><b>active</b>: true</p><p><b>type</b>: Manufacturer <span style="background: LightGoldenRodYellow; margin: 4px; border: 1px solid khaki"> (rmswi#220000000033)</span></p><p><b>name</b>: GLAXO WELLCOME, S.A.</p><h3>Contacts</h3><table class="grid"><tr><td style="display: none">-</td><td><b>Address</b></td></tr><tr><td style="display: none">*</td><td>Avda. Extremadura 3, 09400 Aranda De Duero Aranda De Duero ES(WORK)</td></tr></table></div>
        </text>
        <identifier>
          <use value="official"/>
          <system value="https://spor.ema.europa.eu/omswi"/>
          <value value="ORG-100004538"/>
        </identifier>
        <active value="true"/>
        <type>
          <coding>
            <system value="https://spor.ema.europa.eu/rmswi"/>
            <code value="220000000033"/>
            <display value="Manufacturer"/>
          </coding>
        </type>
        <name value="GLAXO WELLCOME, S.A."/>
        <contact>
          <address>
            <use value="work"/>
            <type value="physical"/>
            <text value="Avda. Extremadura 3, 09400 Aranda De Duero Aranda De Duero ES"/>
            <line value="Avda. Extremadura 3, 09400 Aranda De Duero"/>
            <city value="Aranda De Duero"/>
            <country value="ES"/>
          </address>
        </contact>
      </Organization>
    </resource>
  </entry>
  <entry>
    <fullUrl value="http://hl7.eu/fhir/ig/gravitate-health/Organization/mah-31ff1af739c7dcf77386a86f8dd83d29"/>
    <resource>
      <Organization>
        <id value="mah-31ff1af739c7dcf77386a86f8dd83d29"/>
        <meta>
          <profile value="http://hl7.org/fhir/uv/emedicinal-product-info/StructureDefinition/Organization-uv-epi"/>
        </meta>
        <text>
          <status value="generated"/><div xmlns="http://www.w3.org/1999/xhtml"><p><b>Generated Narrative: Organization</b><a name="mah-31ff1af739c7dcf77386a86f8dd83d29"> </a></p><div style="display: inline-block; background-color: #d9e0e7; padding: 6px; margin: 4px; border: 1px solid #8da1b4; border-radius: 5px; line-height: 60%"><p style="margin-bottom: 0px">Resource Organization &quot;mah-31ff1af739c7dcf77386a86f8dd83d29&quot; </p><p style="margin-bottom: 0px">Profile: <a href="https://build.fhir.org/ig/HL7/emedicinal-product-info//StructureDefinition-Organization-uv-epi.html">Organization (ePI)</a></p></div><p><b>identifier</b>: id: ORG-100012958 (use: OFFICIAL)</p><p><b>active</b>: true</p><p><b>type</b>: Marketing authorisation holder <span style="background: LightGoldenRodYellow; margin: 4px; border: 1px solid khaki"> (rmswi#220000000034)</span></p><p><b>name</b>: ViiV Healthcare BV</p><h3>Contacts</h3><table class="grid"><tr><td style="display: none">-</td><td><b>Address</b></td></tr><tr><td style="display: none">*</td><td>Van Asch van Wijckstraat 55H Amersfoort NL(WORK)</td></tr></table></div>
        </text>
        <identifier>
          <use value="official"/>
          <system value="https://spor.ema.europa.eu/omswi"/>
          <value value="ORG-100012958"/>
        </identifier>
        <active value="true"/>
        <type>
          <coding>
            <system value="https://spor.ema.europa.eu/rmswi"/>
            <code value="220000000034"/>
            <display value="Marketing authorisation holder"/>
          </coding>
        </type>
        <name value="ViiV Healthcare BV"/>
        <contact>
          <address>
            <use value="work"/>
            <type value="physical"/>
            <text value="Van Asch van Wijckstraat 55H Amersfoort NL"/>
            <line value="Van Asch van Wijckstraat 55H"/>
            <city value="Amersfoort"/>
            <country value="NL"/>
          </address>
        </contact>
      </Organization>
    </resource>
  </entry>
  <entry>
    <fullUrl value="http://hl7.eu/fhir/ig/gravitate-health/Organization/mra-7c9b97127f73ff3605a10eb1c2cc24d1"/>
    <resource>
      <Organization>
        <id value="mra-7c9b97127f73ff3605a10eb1c2cc24d1"/>
        <meta>
          <profile value="http://hl7.org/fhir/uv/emedicinal-product-info/StructureDefinition/Organization-uv-epi"/>
        </meta>
        <text>
          <status value="generated"/><div xmlns="http://www.w3.org/1999/xhtml"><p><b>Generated Narrative: Organization</b><a name="mra-7c9b97127f73ff3605a10eb1c2cc24d1"> </a></p><div style="display: inline-block; background-color: #d9e0e7; padding: 6px; margin: 4px; border: 1px solid #8da1b4; border-radius: 5px; line-height: 60%"><p style="margin-bottom: 0px">Resource Organization &quot;mra-7c9b97127f73ff3605a10eb1c2cc24d1&quot; </p><p style="margin-bottom: 0px">Profile: <a href="https://build.fhir.org/ig/HL7/emedicinal-product-info//StructureDefinition-Organization-uv-epi.html">Organization (ePI)</a></p></div><p><b>identifier</b>: id: ORG-100013412 (use: OFFICIAL)</p><p><b>active</b>: true</p><p><b>type</b>: Medicines Regulatory Authority <span style="background: LightGoldenRodYellow; margin: 4px; border: 1px solid khaki"> (rmswi#220000000032)</span></p><p><b>name</b>: European Medicines Agency</p><h3>Contacts</h3><table class="grid"><tr><td style="display: none">-</td><td><b>Address</b></td></tr><tr><td style="display: none">*</td><td>Carretera De Martorell 41 61, Poligono Industrial Nord-Est Amsterdam NL(WORK)</td></tr></table></div>
        </text>
        <identifier>
          <use value="official"/>
          <system value="https://spor.ema.europa.eu/omswi"/>
          <value value="ORG-100013412"/>
        </identifier>
        <active value="true"/>
        <type>
          <coding>
            <system value="https://spor.ema.europa.eu/rmswi"/>
            <code value="220000000032"/>
            <display value="Medicines Regulatory Authority"/>
          </coding>
        </type>
        <name value="European Medicines Agency"/>
        <contact>
          <address>
            <use value="work"/>
            <type value="physical"/>
            <text value="Carretera De Martorell 41 61, Poligono Industrial Nord-Est Amsterdam NL"/>
            <line value="Carretera De Martorell 41 61, Poligono Industrial Nord-Est"/>
            <city value="Amsterdam"/>
            <postalCode value="1083 HS"/>
            <country value="NL"/>
          </address>
        </contact>
      </Organization>
    </resource>
  </entry>
  <entry>
    <fullUrl value="http://hl7.eu/fhir/ig/gravitate-health/PackagedProductDefinition/ppd-23f4e5c6d9ca952c3ffb3940859a26f8"/>
    <resource>
      <PackagedProductDefinition>
        <id value="ppd-23f4e5c6d9ca952c3ffb3940859a26f8"/>
        <meta>
          <profile value="http://hl7.org/fhir/uv/emedicinal-product-info/StructureDefinition/PackagedProductDefinition-uv-epi"/>
        </meta>
        <text>
          <status value="generated"/><div xmlns="http://www.w3.org/1999/xhtml"><p><b>Generated Narrative: PackagedProductDefinition</b><a name="ppd-23f4e5c6d9ca952c3ffb3940859a26f8"> </a></p><div style="display: inline-block; background-color: #d9e0e7; padding: 6px; margin: 4px; border: 1px solid #8da1b4; border-radius: 5px; line-height: 60%"><p style="margin-bottom: 0px">Resource PackagedProductDefinition &quot;ppd-23f4e5c6d9ca952c3ffb3940859a26f8&quot; </p><p style="margin-bottom: 0px">Profile: <a href="https://build.fhir.org/ig/HL7/emedicinal-product-info//StructureDefinition-PackagedProductDefinition-uv-epi.html">PackagedProductDefinition (ePI)</a></p></div><p><b>identifier</b>: id: EU/1/19/1370/001 (use: OFFICIAL)</p><p><b>name</b>: 50 mg/300 mg film-coated tablets</p><p><b>type</b>: Chemical Medicinal Prodcut <span style="background: LightGoldenRodYellow; margin: 4px; border: 1px solid khaki"> (rmswi#100000155527)</span></p><p><b>packageFor</b>: <a href="#MedicinalProductDefinition_mp16598f252d07b4784b82ba43cf9e847e">See above (MedicinalProductDefinition/mp16598f252d07b4784b82ba43cf9e847e)</a></p><p><b>status</b>: Active <span style="background: LightGoldenRodYellow; margin: 4px; border: 1px solid khaki"> (<a href="http://hl7.org/fhir/R5/codesystem-publication-status.html">PublicationStatus</a>#active)</span></p><p><b>statusDate</b>: 2012-02-07 13:28:17+0000</p><p><b>containedItemQuantity</b>: 30 {tablets}<span style="background: LightGoldenRodYellow"> (Details: UCUM code {tablets} = '{tablets}')</span></p><p><b>manufacturer</b>: <a href="#Organization_man-173fde4cb6b1018cb7ec8ab708d3961c">See above (Organization/man-173fde4cb6b1018cb7ec8ab708d3961c)</a></p><blockquote><p><b>packaging</b></p><p><b>type</b>: Box <span style="background: LightGoldenRodYellow; margin: 4px; border: 1px solid khaki"> (rmswi#100000073498)</span></p><p><b>quantity</b>: 1</p><p><b>material</b>: Cardboard <span style="background: LightGoldenRodYellow; margin: 4px; border: 1px solid khaki"> (rmswi#200000003529)</span></p><blockquote><p><b>packaging</b></p><p><b>identifier</b>: id: 654321</p><p><b>type</b>: Child-resistant closure <span style="background: LightGoldenRodYellow; margin: 4px; border: 1px solid khaki"> (rmswi#100000073504)</span></p><p><b>quantity</b>: 1</p><p><b>material</b>: Cardboard <span style="background: LightGoldenRodYellow; margin: 4px; border: 1px solid khaki"> (rmswi#200000003529)</span></p><blockquote><p><b>containedItem</b></p></blockquote></blockquote></blockquote></div>
        </text>
        <identifier>
          <use value="official"/>
          <system value="https://spor.ema.europa.eu/pmswi"/>
          <value value="EU/1/19/1370/001"/>
        </identifier>
        <name value="50 mg/300 mg film-coated tablets"/>
        <type>
          <coding>
            <system value="https://spor.ema.europa.eu/rmswi"/>
            <code value="100000155527"/>
            <display value="Chemical Medicinal Prodcut"/>
          </coding>
        </type>
        <packageFor>
          <reference value="MedicinalProductDefinition/mp16598f252d07b4784b82ba43cf9e847e"/>
        </packageFor>
        <status>
          <coding>
            <system value="http://hl7.org/fhir/publication-status"/>
            <code value="active"/>
            <display value="Active"/>
          </coding>
        </status>
        <statusDate value="2012-02-07T13:28:17Z"/>
        <containedItemQuantity>
          <value value="30"/>
          <system value="http://unitsofmeasure.org"/>
          <code value="{tablets}"/>
        </containedItemQuantity>
        <manufacturer>
          <reference value="Organization/man-173fde4cb6b1018cb7ec8ab708d3961c"/>
        </manufacturer>
        <packaging>
          <type>
            <coding>
              <system value="https://spor.ema.europa.eu/rmswi"/>
              <code value="100000073498"/>
              <display value="Box"/>
            </coding>
          </type>
          <quantity value="1"/>
          <material>
            <coding>
              <system value="https://spor.ema.europa.eu/rmswi"/>
              <code value="200000003529"/>
              <display value="Cardboard"/>
            </coding>
          </material>
          <packaging>
            <identifier>
              <system value="https://spor.ema.europa.eu/pmswi"/>
              <value value="654321"/>
            </identifier>
            <type>
              <coding>
                <system value="https://spor.ema.europa.eu/rmswi"/>
                <code value="100000073504"/>
                <display value="Child-resistant closure"/>
              </coding>
            </type>
            <quantity value="1"/>
            <material>
              <coding>
                <system value="https://spor.ema.europa.eu/rmswi"/>
                <code value="200000003529"/>
                <display value="Cardboard"/>
              </coding>
            </material>
            <containedItem>
              <item>
                <reference>
                  <reference value="ManufacturedItemDefinition/mid-49178f16170ee8a6bc2a4361c1748d5f"/>
                </reference>
              </item>
            </containedItem>
          </packaging>
        </packaging>
      </PackagedProductDefinition>
    </resource>
  </entry>
  <entry>
    <fullUrl value="http://hl7.eu/fhir/ig/gravitate-health/MedicinalProductDefinition/mp16598f252d07b4784b82ba43cf9e847e"/>
    <resource>
      <MedicinalProductDefinition>
        <id value="mp16598f252d07b4784b82ba43cf9e847e"/>
        <meta>
          <profile value="http://hl7.org/fhir/uv/emedicinal-product-info/StructureDefinition/MedicinalProductDefinition-uv-epi"/>
        </meta>
        <text>
          <status value="generated"/><div xmlns="http://www.w3.org/1999/xhtml"><p><b>Generated Narrative: MedicinalProductDefinition</b><a name="mp16598f252d07b4784b82ba43cf9e847e"> </a></p><div style="display: inline-block; background-color: #d9e0e7; padding: 6px; margin: 4px; border: 1px solid #8da1b4; border-radius: 5px; line-height: 60%"><p style="margin-bottom: 0px">Resource MedicinalProductDefinition &quot;mp16598f252d07b4784b82ba43cf9e847e&quot; </p><p style="margin-bottom: 0px">Profile: <a href="https://build.fhir.org/ig/HL7/emedicinal-product-info//StructureDefinition-MedicinalProductDefinition-uv-epi.html">MedicinalProductDefinition (ePI)</a></p></div><p><b>identifier</b>: id: EU/1/19/1370/001, id: 0x073AF2E5B92AE19E8B67635AFFB3D6CA</p><p><b>type</b>: Medicinal Product <span style="background: LightGoldenRodYellow; margin: 4px; border: 1px solid khaki"> (<a href="http://hl7.org/fhir/R5/codesystem-medicinal-product-type.html">Medicinal Product Type</a>#MedicinalProduct)</span></p><p><b>domain</b>: Human use <span style="background: LightGoldenRodYellow; margin: 4px; border: 1px solid khaki"> (<a href="http://hl7.org/fhir/R5/codesystem-medicinal-product-domain.html">Medicinal Product Domain</a>#Human)</span></p><p><b>status</b>: active <span style="background: LightGoldenRodYellow; margin: 4px; border: 1px solid khaki"> (<a href="http://hl7.org/fhir/R5/codesystem-publication-status.html">PublicationStatus</a>#active)</span></p><p><b>legalStatusOfSupply</b>: Medicinal product subject to medical prescription <span style="background: LightGoldenRodYellow; margin: 4px; border: 1px solid khaki"> (rmswi#100000072084)</span></p><blockquote><p><b>name</b></p><p><b>productName</b>: Dovato 50 mg/300 mg film-coated tablets</p><p><b>type</b>: Full name <span style="background: LightGoldenRodYellow; margin: 4px; border: 1px solid khaki"> (220000000000#220000000001)</span></p><blockquote><p><b>part</b></p><p><b>part</b>: Dovato</p><p><b>type</b>: Invented name part <span style="background: LightGoldenRodYellow; margin: 4px; border: 1px solid khaki"> (220000000000#220000000002)</span></p></blockquote><blockquote><p><b>part</b></p><p><b>part</b>: dolutegravir/lamivudine</p><p><b>type</b>: Scientific name part <span style="background: LightGoldenRodYellow; margin: 4px; border: 1px solid khaki"> (220000000000#220000000003)</span></p></blockquote><blockquote><p><b>part</b></p><p><b>part</b>: 50 mg/300 mg</p><p><b>type</b>: Strength part <span style="background: LightGoldenRodYellow; margin: 4px; border: 1px solid khaki"> (220000000000#220000000004)</span></p></blockquote><blockquote><p><b>part</b></p><p><b>part</b>: film-coated tablets</p><p><b>type</b>: Pharmaceutical dose form part <span style="background: LightGoldenRodYellow; margin: 4px; border: 1px solid khaki"> (220000000000#220000000005)</span></p></blockquote><h3>Usages</h3><table class="grid"><tr><td style="display: none">-</td><td><b>Country</b></td><td><b>Jurisdiction</b></td><td><b>Language</b></td></tr><tr><td style="display: none">*</td><td>United Kingdom <span style="background: LightGoldenRodYellow; margin: 4px; border: 1px solid khaki"> (<a href="http://terminology.hl7.org/5.3.0/CodeSystem-ISO3166Part1.html">ISO 3166-1 Codes for the representation of names of countries and their subdivisions — Part 1: Country code</a>#GBR)</span></td><td>United Kingdom <span style="background: LightGoldenRodYellow; margin: 4px; border: 1px solid khaki"> (<a href="http://terminology.hl7.org/5.3.0/CodeSystem-ISO3166Part1.html">ISO 3166-1 Codes for the representation of names of countries and their subdivisions — Part 1: Country code</a>#GBR)</span></td><td>English <span style="background: LightGoldenRodYellow; margin: 4px; border: 1px solid khaki"> (<a href="http://terminology.hl7.org/5.3.0/CodeSystem-v3-ietf3066.html">Tags for the Identification of Languages</a>#en)</span></td></tr></table></blockquote></div>
        </text>
        <identifier>
          <system value="https://spor.ema.europa.eu/pmswi"/>
          <value value="EU/1/19/1370/001"/>
        </identifier>
        <identifier>
          <system value="https://www.who-umc.org/phpid"/>
          <value value="0x073AF2E5B92AE19E8B67635AFFB3D6CA"/>
        </identifier>
        <type>
          <coding>
            <system value="http://hl7.org/fhir/medicinal-product-type"/>
            <code value="MedicinalProduct"/>
            <display value="Medicinal Product"/>
          </coding>
        </type>
        <domain>
          <coding>
            <system value="http://hl7.org/fhir/medicinal-product-domain"/>
            <code value="Human"/>
            <display value="Human use"/>
          </coding>
        </domain>
        <status>
          <coding>
            <system value="http://hl7.org/fhir/publication-status"/>
            <code value="active"/>
            <display value="active"/>
          </coding>
        </status>
        <legalStatusOfSupply>
          <coding>
            <system value="https://spor.ema.europa.eu/rmswi"/>
            <code value="100000072084"/>
            <display value="Medicinal product subject to medical prescription"/>
          </coding>
        </legalStatusOfSupply>
        <name>
          <productName value="Dovato 50 mg/300 mg film-coated tablets"/>
          <type>
            <coding>
              <system value="https://spor.ema.europa.eu/lists/220000000000"/>
              <code value="220000000001"/>
              <display value="Full name"/>
            </coding>
          </type>
          <part>
            <part value="Dovato"/>
            <type>
              <coding>
                <system value="https://spor.ema.europa.eu/lists/220000000000"/>
                <code value="220000000002"/>
                <display value="Invented name part"/>
              </coding>
            </type>
          </part>
          <part>
            <part value="dolutegravir/lamivudine"/>
            <type>
              <coding>
                <system value="https://spor.ema.europa.eu/lists/220000000000"/>
                <code value="220000000003"/>
                <display value="Scientific name part"/>
              </coding>
            </type>
          </part>
          <part>
            <part value="50 mg/300 mg"/>
            <type>
              <coding>
                <system value="https://spor.ema.europa.eu/lists/220000000000"/>
                <code value="220000000004"/>
                <display value="Strength part"/>
              </coding>
            </type>
          </part>
          <part>
            <part value="film-coated tablets"/>
            <type>
              <coding>
                <system value="https://spor.ema.europa.eu/lists/220000000000"/>
                <code value="220000000005"/>
                <display value="Pharmaceutical dose form part"/>
              </coding>
            </type>
          </part>
          <usage>
            <country>
              <coding>
                <system value="urn:iso:std:iso:3166"/>
                <code value="GBR"/>
                <display value="United Kingdom"/>
              </coding>
            </country>
            <jurisdiction>
              <coding>
                <system value="urn:iso:std:iso:3166"/>
                <code value="GBR"/>
                <display value="United Kingdom"/>
              </coding>
            </jurisdiction>
            <language>
              <coding>
                <system value="urn:ietf:bcp:47"/>
                <code value="en"/>
                <display value="English"/>
              </coding>
            </language>
          </usage>
        </name>
      </MedicinalProductDefinition>
    </resource>
  </entry>
  <entry>
    <fullUrl value="http://hl7.eu/fhir/ig/gravitate-health/ManufacturedItemDefinition/mid-49178f16170ee8a6bc2a4361c1748d5f"/>
    <resource>
      <ManufacturedItemDefinition>
        <id value="mid-49178f16170ee8a6bc2a4361c1748d5f"/>
        <meta>
          <profile value="http://hl7.org/fhir/uv/emedicinal-product-info/StructureDefinition/ManufacturedItemDefinition-uv-epi"/>
        </meta>
        <text>
          <status value="generated"/><div xmlns="http://www.w3.org/1999/xhtml"><p><b>Generated Narrative: ManufacturedItemDefinition</b><a name="mid-49178f16170ee8a6bc2a4361c1748d5f"> </a></p><div style="display: inline-block; background-color: #d9e0e7; padding: 6px; margin: 4px; border: 1px solid #8da1b4; border-radius: 5px; line-height: 60%"><p style="margin-bottom: 0px">Resource ManufacturedItemDefinition &quot;mid-49178f16170ee8a6bc2a4361c1748d5f&quot; </p><p style="margin-bottom: 0px">Profile: <a href="https://build.fhir.org/ig/HL7/emedicinal-product-info//StructureDefinition-ManufacturedItemDefinition-uv-epi.html">ManufacturedItemDefinition (ePI)</a></p></div><p><b>identifier</b>: id: EU/1/19/1370/001 (use: OFFICIAL)</p><p><b>status</b>: active</p><p><b>manufacturedDoseForm</b>: Film-coated tablet <span style="background: LightGoldenRodYellow; margin: 4px; border: 1px solid khaki"> (#100000073665)</span></p><p><b>unitOfPresentation</b>: Tablet <span style="background: LightGoldenRodYellow; margin: 4px; border: 1px solid khaki"> (rmswi#200000002152)</span></p><p><b>manufacturer</b>: <a href="#Organization_man-173fde4cb6b1018cb7ec8ab708d3961c">See above (Organization/man-173fde4cb6b1018cb7ec8ab708d3961c)</a></p></div>
        </text>
        <identifier>
          <use value="official"/>
          <system value="https://spor.ema.europa.eu/pmswi"/>
          <value value="EU/1/19/1370/001"/>
        </identifier>
        <status value="active"/>
        <manufacturedDoseForm>
          <coding>
            <system value="https://spor.ema.europa.eu/rmswi/"/>
            <code value="100000073665"/>
            <display value="Film-coated tablet"/>
          </coding>
        </manufacturedDoseForm>
        <unitOfPresentation>
          <coding>
            <system value="https://spor.ema.europa.eu/rmswi"/>
            <code value="200000002152"/>
            <display value="Tablet"/>
          </coding>
        </unitOfPresentation>
        <manufacturer>
          <reference value="Organization/man-173fde4cb6b1018cb7ec8ab708d3961c"/>
        </manufacturer>
      </ManufacturedItemDefinition>
    </resource>
  </entry>
</Bundle>