<?xml version="1.0" encoding="UTF-8"?>

<Bundle xmlns="http://hl7.org/fhir">
  <id value="bundlepackageleaflet-talzenna1and025"/>
  <meta>
    <profile value="http://hl7.org/fhir/uv/emedicinal-product-info/StructureDefinition/Bundle-uv-epi"/>
  </meta>
  <language value="en"/>
  <identifier>
    <system value="https://www.mhra.gov.uk/"/>
    <value value="talzenna"/>
  </identifier>
  <type value="document"/>
  <timestamp value="2022-03-04T00:00:00Z"/>
  <entry>
    <fullUrl value="http://hl7.eu/fhir/ig/gravitate-health/Composition/compositionuken"/>
    <resource>
      <Composition>
        <id value="compositionuken"/>
        <meta>
          <profile value="http://hl7.org/fhir/uv/emedicinal-product-info/StructureDefinition/Composition-uv-epi"/>
        </meta>
        <language value="en"/>
        <text>
          <status value="generated"/><div xmlns="http://www.w3.org/1999/xhtml" xml:lang="en" lang="en"><p><b>Generated Narrative: Composition</b><a name="compositionuken"> </a></p><div style="display: inline-block; background-color: #d9e0e7; padding: 6px; margin: 4px; border: 1px solid #8da1b4; border-radius: 5px; line-height: 60%"><p style="margin-bottom: 0px">Resource Composition &quot;compositionuken&quot;  (Language &quot;en&quot;) </p><p style="margin-bottom: 0px">Profile: <a href="https://build.fhir.org/ig/HL7/emedicinal-product-info//StructureDefinition-Composition-uv-epi.html">Composition (ePI)</a></p></div><p><b>identifier</b>: id: 0d69fdcb-33cf-407f-8209-a6529856ab4f</p><p><b>status</b>: final</p><p><b>type</b>: Package Leaflet <span style="background: LightGoldenRodYellow; margin: 4px; border: 1px solid khaki"> (#100000155538)</span></p><p><b>date</b>: 2022-03-04 00:00:00+0000</p><p><b>author</b>: <a href="#Organization_orgpfizerukltd">See above (Organization/orgpfizerukltd)</a></p><p><b>title</b>: Talzenna® (talazoparib) 0.25 mg and 1mg hard capsules</p></div>
        </text>
        <identifier>
          <system value="https://www.mhra.gov.uk/"/>
          <value value="0d69fdcb-33cf-407f-8209-a6529856ab4f"/>
        </identifier>
        <status value="final"/>
        <type>
          <coding>
            <system value="https://www.mhra.gov.uk/"/>
            <code value="100000155538"/>
          </coding>
          <text value="Package Leaflet"/>
        </type>
        <subject>
          <reference value="MedicinalProductDefinition/mp025mg"/>
        </subject>
        <date value="2022-03-04T00:00:00Z"/>
        <author>
          <reference value="Organization/orgpfizerukltd"/>
        </author>
        <title value="Talzenna® (talazoparib) 0.25 mg and 1mg hard capsules"/>
        <section>
          <title value="Package leaflet: Information for the patient"/>
          <code>
            <coding>
              <system value="https://www.mhra.gov.uk/"/>
              <code value="100000155538"/>
            </coding>
            <text value="Package leaflet: Information for the patient"/>
          </code>
          <text>
            <status value="additional"/><div xmlns="http://www.w3.org/1999/xhtml"><p style="text-align: center" class="mg-025"><b>Talzenna<sup>®</sup> 0.25 mg hard capsules</b></p><p style="text-align: center" class="mg-1"><b>Talzenna<sup>®</sup> 1 mg hard capsules</b></p><p style="text-align: center">talazoparib</p><p>▼ This medicine is subject to additional monitoring. This will allow quick identification of new safety information. You can help by reporting any side effects you may get. See the end of section 4 for how to report side effects.</p><p><b>Read all of this leaflet carefully before you start taking this medicine because it contains important information for you.</b></p><ul><li>Keep this leaflet. You may need to read it again.</li><li>If you have any further questions, ask your doctor, pharmacist or nurse.</li><li>This medicine has been prescribed for you only. Do not pass it on to others. It may harm them, even if their signs of illness are the same as yours.</li><li>If you get any side effects, talk to your doctor, pharmacist or nurse. This includes any possible side effects not listed in this leaflet. See section 4.</li></ul></div>
          </text>
          <section>
            <title value="What is in this leaflet"/>
            <code>
              <coding>
                <system value="https://www.mhra.gov.uk/"/>
                <code value="100000155538"/>
              </coding>
              <text value="What is in this leaflet"/>
            </code>
            <text>
              <status value="additional"/><div xmlns="http://www.w3.org/1999/xhtml"><ol><li>What Talzenna is and what it is used for</li><li>What you need to know before you take Talzenna</li><li>How to take Talzenna</li><li>Possible side effects</li><li>How to store Talzenna</li><li>Contents of the pack and other information</li></ol></div>
            </text>
          </section>
        </section>
        <section>
          <title value="1. What Talzenna is and what it is used for"/>
          <code>
            <coding>
              <system value="https://www.mhra.gov.uk/"/>
              <code value="100000155538"/>
            </coding>
            <text value="1. What X is and what it is used for"/>
          </code>
          <text>
            <status value="additional"/><div xmlns="http://www.w3.org/1999/xhtml"><p><b>What Talzenna is and how it works</b></p><p>Talzenna contains the active substance talazoparib. It is a type of anticancer medicine known as a ‘PARP (poly-ADP ribose polymerase) inhibitor’.</p><p>Patients with changes (mutations) in genes called BRCA are at risk of developing some forms of cancer. Talzenna works by blocking PARP, which is an enzyme that repairs damaged DNA in certain cancer cells. As a result, the cancer cells can no longer repair themselves and they die.</p><p><b>What Talzenna is used for</b></p><div class="breastCancer"><p>Talzenna is used to treat adults with breast cancer of a type known as HER2-negative breast cancer who have an abnormal inherited BRCA gene.</p><p>Talzenna is used when the cancer has spread beyond the original tumour or to other parts of the body.</p></div><p>Your healthcare provider will perform a test to make sure that Talzenna is right for you.</p><p>If you have any questions about how Talzenna works or why this medicine has been prescribed for you, ask your doctor.</p></div>
          </text>
        </section>
        <section>
          <title value="2. What you need to know before you take Talzenna"/>
          <code>
            <coding>
              <system value="https://www.mhra.gov.uk/"/>
              <code value="100000155538"/>
            </coding>
            <text value="2. What you need to know before you take X"/>
          </code>
          <section>
            <title value="Do not take Talzenna"/>
            <code>
              <coding>
                <system value="https://www.mhra.gov.uk/"/>
                <code value="100000155538"/>
              </coding>
              <text value="Do not &amp;lt;take&amp;gt;; &amp;lt;use&amp;gt; X"/>
            </code>
            <text>
              <status value="additional"/><div xmlns="http://www.w3.org/1999/xhtml"><ul><li class="allergen"><p>If you are allergic to talazoparib or any of the other ingredients of this medicine (listed in section 6).</p></li><li class="breastFeeding"><p>If you are breast-feeding.</p></li></ul></div>
            </text>
          </section>
          <section>
            <title value="Warnings and precautions"/>
            <code>
              <coding>
                <system value="https://www.mhra.gov.uk/"/>
                <code value="100000155538"/>
              </coding>
              <text value="Warnings and precautions"/>
            </code>
            <text>
              <status value="additional"/><div xmlns="http://www.w3.org/1999/xhtml"><p>Talk to your doctor, pharmacist or nurse before taking Talzenna and during your treatment if you experience signs or symptoms described in this section.</p><p><em style="text-decoration: underline">Low blood cell counts</em></p><p>Talzenna lowers your blood cell counts, such as your red blood cell count (anaemia), white blood cell count (neutropenia), or blood platelet count (thrombocytopenia). Signs and symptoms you need to look out for include:</p><ul><li><p><b>Anaemia: </b>Being short of breath, feeling very tired, pale skin, or fast heartbeat – these may be</p><p>signs of a low red blood cell count</p></li><li><p><b>Neutropenia: </b>Infection, developing chills or shivering, or fever – these may be signs of a low</p><p>white blood cell count</p></li><li><p><b>Thrombocytopenia: </b>Bruising or bleeding for longer than usual if you hurt yourself – these may be signs of a low blood platelet count</p></li></ul><p>You will have regular blood tests during treatment with Talzenna to check your blood cells (white blood cells, red blood cells, and platelets).</p><p>Serious problems with the bone marrow</p><p>Rarely, low blood cell counts may be a sign of more serious problems with the bone marrow such as myelodysplastic syndrome (MDS) or acute myeloid leukaemia (AML). Your doctor may want to test your bone marrow to check for these problems.</p><p><em style="text-decoration: underline">Male and female contraception</em></p><div class="Adolescent Adult Elderly"><p>Women who can become pregnant and men with partners who are or can become pregnant should use effective contraception.</p><p>Please see section “Male and female contraception” below.</p></div></div>
            </text>
          </section>
          <section>
            <title value="Children and adolescents"/>
            <code>
              <coding>
                <system value="https://www.mhra.gov.uk/"/>
                <code value="100000155538"/>
              </coding>
              <text value="Children and adolescents"/>
            </code>
            <text>
              <status value="additional"/><div xmlns="http://www.w3.org/1999/xhtml"><p>Talzenna is not to be used in children or adolescents (under 18 years of age).</p></div>
            </text>
          </section>
          <section>
            <title value="Other medicines and Talzenna"/>
            <code>
              <coding>
                <system value="https://www.mhra.gov.uk/"/>
                <code value="100000155538"/>
              </coding>
              <text value="Other medicines and Talzenna"/>
            </code>
            <text>
              <status value="additional"/><div xmlns="http://www.w3.org/1999/xhtml"><p>Tell your doctor, pharmacist or nurse if you are taking, have recently taken or might take any other medicines. This includes medicines obtained without a prescription and herbal medicines. This is because Talzenna can affect the way some other medicines work. Also some medicines can affect the way Talzenna works.</p><p>In particular, the following may increase the risk of side effects with Talzenna:</p><ul><li class="Amiodarone carvedilol dronedarone propafenone quinidine ranolazine verapamil"><p>Amiodarone, carvedilol, dronedarone, propafenone, quinidine, ranolazine and verapamil – generally used to treat heart problems.</p></li><li class="Clarithromycin erythromycinAntibiotics"><p>Clarithromycin and erythromycin antibiotics – used to treat bacterial infections.</p></li><li class="Itraconazole ketoconazole"><p>Itraconazole and ketoconazole – used to treat fungal infections.</p></li><li class="Cobicistat darunavir indinavir lopinavir ritonavir saquinavir telaprevir tipranavir"><p>Cobicistat, darunavir, indinavir, lopinavir, ritonavir, saquinavir, telaprevir and tipranavir - used to treat HIV infections/AIDS.</p></li><li class="Ciclosporin"><p>Ciclosporin – used in organ transplantation to prevent rejection.</p></li><li class="Lapatinib"><p>Lapatinib – used to treat patients with certain types of breast cancer.</p></li><li class="Curcumin turmeric"><p>Curcumin (e.g. found in turmeric root) in some medicines (see also section Talzenna with food and drink below).</p></li></ul><p>The following medicines may reduce the effect of Talzenna:</p><ul><li class="Carbamazepine phenytoin"><p>Carbamazepine and phenytoin – anti-epileptics used to treat seizures or fits.</p></li><li class="StJohnsWort HypericumPerforatum"><p>St. John’s wort (<i>Hypericum perforatum</i>) – a herbal remedy used to treat mild depression and</p><p>anxiety.</p></li></ul></div>
            </text>
          </section>
          <section>
            <title value="Talzenna with food and drink"/>
            <code>
              <coding>
                <system value="https://www.mhra.gov.uk/"/>
                <code value="100000155538"/>
              </coding>
              <text value="X with &amp;lt;food&amp;gt; &amp;lt;and&amp;gt; &amp;lt;,&amp;gt; &amp;lt;drink&amp;gt; &amp;lt;and&amp;gt; &amp;lt;alcohol&amp;gt;"/>
            </code>
            <text>
              <status value="additional"/><div xmlns="http://www.w3.org/1999/xhtml"><p>Do not use curcumin in food supplements while you are taking Talzenna as it may increase Talzenna’s side effects. Curcumin is found in turmeric root and you should not use large amounts of turmeric root, but using spices in food is not likely to cause a problem.</p></div>
            </text>
          </section>
          <section>
            <title value="Pregnancy"/>
            <code>
              <coding>
                <system value="https://www.mhra.gov.uk/"/>
                <code value="100000155538"/>
              </coding>
              <text value="Pregnancy &amp;lt;and&amp;gt; &amp;lt;,&amp;gt; breast-feeding &amp;lt;and fertility&amp;gt;"/>
            </code>
            <text>
              <status value="additional"/><div xmlns="http://www.w3.org/1999/xhtml"><p>Talzenna could harm an unborn baby. <span class="Female">If you are pregnant or breast-feeding, think you may be pregnant or are planning to have a baby, ask your doctor or pharmacist for advice before taking this medicine. Your doctor will perform a pregnancy test prior to starting Talzenna.</span></p><ul><li class="Pregnant"><p>You should not use Talzenna if you are pregnant.</p></li><li class="Female"><p>You should not become pregnant while taking Talzenna.</p></li><li><p>Discuss contraception with your doctor if there is any possibility that you or your partner may become pregnant.</p></li></ul><p><b>Male and female contraception</b></p><div class="Female"><p><b>Women </b>who are able to become pregnant should use effective birth control (contraception) during treatment with Talzenna and for at least 7 months after the last dose of Talzenna. Since the use of hormonal contraception is not recommended if you have breast cancer, you should use two non-hormonal contraception methods.</p><p>Talk to your healthcare provider about birth control methods that may be right for you.</p></div><a/><div class="Male"><p><b>Men </b>with female partners who are pregnant or able to become pregnant should use effective birth control (contraception), even after a vasectomy, during treatment with Talzenna and for at least 4 months after the last dose.</p></div></div>
            </text>
          </section>
          <section>
            <title value="Breast-feeding"/>
            <code>
              <coding>
                <system value="https://www.mhra.gov.uk/"/>
                <code value="200000029813"/>
              </coding>
              <text value="Breast-feeding"/>
            </code>
            <text>
              <status value="additional"/><div xmlns="http://www.w3.org/1999/xhtml"><p class="BreastFeeding">You should not breast-feed while taking Talzenna and for at least 1 month after the last dose. It is not known if Talzenna passes into breast milk.</p></div>
            </text>
          </section>
          <section>
            <title value="Fertility"/>
            <code>
              <coding>
                <system value="https://www.mhra.gov.uk/"/>
                <code value="200000029814"/>
              </coding>
              <text value="Fertility"/>
            </code>
            <text>
              <status value="additional"/><div xmlns="http://www.w3.org/1999/xhtml"><p class="Male">Talazoparib may reduce fertility in men.</p></div>
            </text>
          </section>
          <section>
            <title value="Driving and using machines"/>
            <code>
              <coding>
                <system value="https://www.mhra.gov.uk/"/>
                <code value="100000155538"/>
              </coding>
              <text value="Driving and using machines"/>
            </code>
            <text>
              <status value="additional"/><div xmlns="http://www.w3.org/1999/xhtml"><p>Talzenna may have a minor influence on the ability to drive and use machines. If you feel dizzy, weak, or tired (these are very common side effects of Talzenna), you should not drive or use machines.</p></div>
            </text>
          </section>
        </section>
        <section>
          <title value="3. How to take Talzenna"/>
          <code>
            <coding>
              <system value="https://www.mhra.gov.uk/"/>
              <code value="100000155538"/>
            </coding>
            <text value="3. How to &amp;lt;take&amp;gt; &amp;lt;use&amp;gt; X"/>
          </code>
          <text>
            <status value="additional"/><div xmlns="http://www.w3.org/1999/xhtml"><p>Always take this medicine exactly as your doctor or pharmacist has told you. Check with your doctor or pharmacist if you are not sure.</p><p><b>How much to take</b></p><p>The recommended dose is one 1-mg capsule taken by mouth once daily.</p><p>If you get certain side effects while you are taking Talzenna (see section 4), your doctor may lower your dose or stop treatment, either temporarily or permanently. The dose may be lowered to 0.75 mg (taken as three 0.25-mg capsules) once daily, or 0.5 mg (two 0.25-mg capsules) once daily, or 0.25 mg (one 0.25-mg capsule) once daily.</p><p>Swallow the capsule whole with a glass of water. Do not chew or crush the capsules. You can take Talzenna with food or between meals. Do not open the capsules. Contact with the capsule content should be avoided.</p></div>
          </text>
          <section>
            <title value="If you take more Talzenna than you should"/>
            <code>
              <coding>
                <system value="https://www.mhra.gov.uk/"/>
                <code value="100000155538"/>
              </coding>
              <text value="If you &amp;lt;take&amp;gt; &amp;lt;use&amp;gt; more X than you should"/>
            </code>
            <text>
              <status value="additional"/><div xmlns="http://www.w3.org/1999/xhtml"><p>If you have taken more Talzenna than your normal dose, contact your doctor or nearest hospital right away. Urgent treatment may be necessary.</p><p>Take the carton and this leaflet so that the doctor knows what you have been taking.</p></div>
            </text>
          </section>
          <section>
            <title value="If you forget to take Talzenna"/>
            <code>
              <coding>
                <system value="https://www.mhra.gov.uk/"/>
                <code value="100000155538"/>
              </coding>
              <text value="If you forget to &amp;lt;take&amp;gt; &amp;lt;use&amp;gt; X"/>
            </code>
            <text>
              <status value="additional"/><div xmlns="http://www.w3.org/1999/xhtml"><p>If you miss a dose or vomit, take your next dose as scheduled. Do not take a double dose to make up for the forgotten or vomited capsules.</p></div>
            </text>
          </section>
          <section>
            <title value="If you stop taking Talzenna"/>
            <code>
              <coding>
                <system value="https://www.mhra.gov.uk/"/>
                <code value="100000155538"/>
              </coding>
              <text value="If you stop &amp;lt;taking&amp;gt; &amp;lt;using&amp;gt; X"/>
            </code>
            <text>
              <status value="additional"/><div xmlns="http://www.w3.org/1999/xhtml"><p>Do not stop taking Talzenna unless your doctor tells you to.</p><p>If you have any further questions on the use of this medicine, ask your doctor or pharmacist or nurse.</p></div>
            </text>
          </section>
        </section>
        <section>
          <title value="4. Possible side effects"/>
          <code>
            <coding>
              <system value="https://www.mhra.gov.uk/"/>
              <code value="100000155538"/>
            </coding>
            <text value="4. Possible side effects"/>
          </code>
          <text>
            <status value="additional"/><div xmlns="http://www.w3.org/1999/xhtml"><p>Like all medicines, this medicine can cause side effects, although not everybody gets them.</p><p><b>Tell your doctor straight away if you notice any of the following symptoms which could be a sign of serious blood disorder:</b></p><p><b>Very common</b> (may affect more than 1 in 10 people)</p><ul><li>Being short of breath, feeling very tired, having pale skin, or fast heartbeat – these may be signs of a low red blood cell count (anaemia).</li><li>Infection, developing chills or shivering, or fever or feeling hot – these may be signs of a low white blood cell count (neutropenia).</li><li>Bruising or bleeding for longer than usual if you hurt yourself – these may be signs of a low blood platelet count (thrombocytopenia).</li></ul><p><b>Talk to your doctor if you get any other side effects. These can include:</b></p><p><b>Very common</b> (may affect more than 1 in 10 people)</p><ul><li>Low counts of white blood cells, red blood cells, and blood platelets</li><li>Decreased appetite</li><li>Feeling dizzy</li><li>Headache</li><li>Feeling sick (nausea)</li><li>Being sick (vomiting)</li><li>Diarrhoea</li><li>Pain in the abdomen</li><li>Hair loss</li></ul><p><b>Common</b> (may affect up to 1 in 10 people)</p><ul><li>Alteration in taste (dysgeusia)</li><li>Indigestion</li><li>Mouth inflammation</li></ul></div>
          </text>
          <section>
            <title value="Reporting of side effects"/>
            <code>
              <coding>
                <system value="https://www.mhra.gov.uk/"/>
                <code value="100000155538"/>
              </coding>
              <text value="Reporting of side effects"/>
            </code>
            <text>
              <status value="additional"/><div xmlns="http://www.w3.org/1999/xhtml"><p>If you get any side effects, talk to your doctor, pharmacist or nurse. This includes any possible side effects not listed in this leaflet. You can also report side effects directly via the Yellow Card Scheme at: <a href="http://www.mhra.gov.uk/yellowcard">www.mhra.gov.uk/yellowcard</a> or search for MHRA Yellow Card in the Google Play or Apple App Store. By reporting side effects you can help provide more information on the safety of this medicine.</p></div>
            </text>
          </section>
        </section>
        <section>
          <title value="5. How to store Talzenna"/>
          <code>
            <coding>
              <system value="https://www.mhra.gov.uk/"/>
              <code value="100000155538"/>
            </coding>
            <text value="5. How to store X"/>
          </code>
          <text>
            <status value="additional"/><div xmlns="http://www.w3.org/1999/xhtml"><p>Keep this medicine out of the sight and reach of children.</p><p>Do not use this medicine after the expiry date which is stated on the carton and the bottle or blister after EXP. The expiry date refers to the last day of that month.</p><p>This medicine does not require any special storage conditions.</p><p>Do not use this medicine if the pack is damaged or shows signs of tampering.</p><p>Do not throw away any medicines via wastewater or household waste. Ask your pharmacist how to throw away medicines you no longer use. These measures will help protect the environment.</p></div>
          </text>
        </section>
        <section>
          <title value="6. Contents of the pack and other information"/>
          <code>
            <coding>
              <system value="https://www.mhra.gov.uk/"/>
              <code value="100000155538"/>
            </coding>
            <text value="6. Contents of the pack and other information"/>
          </code>
          <section>
            <title value="What Talzenna contains"/>
            <code>
              <coding>
                <system value="https://www.mhra.gov.uk/"/>
                <code value="100000155538"/>
              </coding>
              <text value="What X contains"/>
            </code>
            <text>
              <status value="additional"/><div xmlns="http://www.w3.org/1999/xhtml"><ul><li><p>The active substance is talazoparib. Talzenna hard capsules come in different strengths.</p></li><li class="mg-025"><p>Talzenna 0.25 mg hard capsules: each capsule contains talazoparib tosylate equivalent to 0.25 mg talazoparib.</p></li><li class="mg-1"><p>Talzenna 1 mg hard capsules: each capsule contains talazoparib tosylate equivalent to 1 mg talazoparib.</p></li></ul><p>The other ingredients are:</p><ul><li><p>Capsule content: silicified microcrystalline cellulose (sMCC) (microcrystalline cellulose and silicone dioxide).</p></li><li class="mg-025"><p>0.25 mg capsule shell: hypromellose (HPMC), yellow iron oxide (E172), and titanium dioxide (E171)</p></li><li class="mg-1"><p>1 mg capsule shell: hypromellose (HPMC), yellow iron oxide (E172), titanium dioxide (E171), and red iron oxide (E172)</p></li></ul><p>Printing ink: shellac (E904), propylene glycol (E1520), ammonium hydroxide (E527), black iron oxide (E172), and potassium hydroxide (E525).</p></div>
            </text>
          </section>
          <section>
            <title value="What Talzenna looks like and contents of the pack"/>
            <code>
              <coding>
                <system value="https://www.mhra.gov.uk/"/>
                <code value="100000155538"/>
              </coding>
              <text value="What X looks like and contents of the pack"/>
            </code>
            <text>
              <status value="additional"/><div xmlns="http://www.w3.org/1999/xhtml"><p class="mg-025">Talzenna 0.25 mg is supplied as opaque, approximately 14.30 mm x 5.32 mm hard capsule with an ivory cap (printed with “Pfizer” in black) and a white body (printed with “TLZ 0.25” in black).</p><p class="mg-1">Talzenna 1 mg is supplied as opaque, approximately 14.30 mm x 5.32 mm hard capsule with a light red cap (printed with “Pfizer” in black) and a white body (printed with “TLZ 1” in black).</p><p class="mg-025">Talzenna 0.25 mg is available in perforated unit dose blister packs of 30, or 60, or 90 hard capsules and in plastic bottles of 30 hard capsules.</p><p class="mg-1">Talzenna 1 mg is available in perforated unit dose blister packs of 30 hard capsules and in plastic bottles of 30 hard capsules.</p><p>Not all pack sizes may be marketed.</p></div>
            </text>
          </section>
          <section>
            <title value="Marketing Authorization Holder and Manufacturer"/>
            <code>
              <coding>
                <system value="https://www.mhra.gov.uk/"/>
                <code value="100000155538"/>
              </coding>
              <text value="Marketing Authorization Holder and Manufacturer"/>
            </code>
            <text>
              <status value="additional"/><div xmlns="http://www.w3.org/1999/xhtml"><p>Pfizer Limited</p><p>Ramsgate Road</p><p>Sandwich</p><p>Kent</p><p>CT13 9NJ</p><p>United Kingdom</p><p><b>Manufacturer</b></p><p>Excella GmbH &amp; Co. KG</p><p>Nürnberger Strasse 12</p><p>90537 Feucht</p><p>Germany</p><p>For any information about this medicine, please contact:</p><p>Medical Information, Pfizer Ltd, Walton Oaks, Dorking Road, Tadworth, Surrey, KT20 7NS.</p><p>Telephone 01304 616161</p><p><b>This leaflet was last revised in 12/2021</b></p></div>
            </text>
          </section>
        </section>
      </Composition>
    </resource>
  </entry>
  <entry>
    <fullUrl value="http://hl7.eu/fhir/ig/gravitate-health/Ingredient/talazoparib025mg"/>
    <resource>
      <Ingredient>
        <id value="talazoparib025mg"/>
        <meta>
          <profile value="http://hl7.org/fhir/uv/emedicinal-product-info/StructureDefinition/Ingredient-uv-epi"/>
        </meta>
        <text>
          <status value="generated"/><div xmlns="http://www.w3.org/1999/xhtml"><p><b>Generated Narrative: Ingredient</b><a name="talazoparib025mg"> </a></p><div style="display: inline-block; background-color: #d9e0e7; padding: 6px; margin: 4px; border: 1px solid #8da1b4; border-radius: 5px; line-height: 60%"><p style="margin-bottom: 0px">Resource Ingredient &quot;talazoparib025mg&quot; </p><p style="margin-bottom: 0px">Profile: <a href="https://build.fhir.org/ig/HL7/emedicinal-product-info//StructureDefinition-Ingredient-uv-epi.html">Ingredient (ePI)</a></p></div><p><b>identifier</b>: id: 9QHX048FRV (use: OFFICIAL)</p><p><b>status</b>: active</p><p><b>for</b>: <a href="#ManufacturedItemDefinition_mid025mg">See above (ManufacturedItemDefinition/mid025mg)</a></p><p><b>role</b>: Active <span style="background: LightGoldenRodYellow; margin: 4px; border: 1px solid khaki"> (rmswi#100000072072)</span></p><p><b>allergenicIndicator</b>: false</p><h3>Manufacturers</h3><table class="grid"><tr><td style="display: none">-</td><td><b>Manufacturer</b></td></tr><tr><td style="display: none">*</td><td><a href="#Organization_orgpfizerukltd">See above (Organization/orgpfizerukltd)</a></td></tr></table><blockquote><p><b>substance</b></p><h3>Codes</h3><table class="grid"><tr><td style="display: none">-</td><td><b>Concept</b></td></tr><tr><td style="display: none">*</td><td>TALAZOPARIB <span style="background: LightGoldenRodYellow; margin: 4px; border: 1px solid khaki"> (beta#9QHX048FRV)</span></td></tr></table><h3>Strengths</h3><table class="grid"><tr><td style="display: none">-</td><td><b>Presentation[x]</b></td><td><b>Basis</b></td></tr><tr><td style="display: none">*</td><td>0.25 mg</td><td>active ingredient - basis of strength <span style="background: LightGoldenRodYellow; margin: 4px; border: 1px solid khaki"> (<a href="http://terminology.hl7.org/5.3.0/CodeSystem-v3-RoleClass.html">RoleClass</a>#ACTIB)</span></td></tr></table></blockquote></div>
        </text>
        <identifier>
          <use value="official"/>
          <system value="https://gsrs.ncats.nih.gov/ginas/app/beta"/>
          <value value="9QHX048FRV"/>
        </identifier>
        <status value="active"/>
        <for>
          <reference value="ManufacturedItemDefinition/mid025mg"/>
        </for>
        <role>
          <coding>
            <system value="https://spor.ema.europa.eu/rmswi"/>
            <code value="100000072072"/>
            <display value="Active"/>
          </coding>
        </role>
        <allergenicIndicator value="false"/>
        <manufacturer>
          <manufacturer>
            <reference value="Organization/orgpfizerukltd"/>
          </manufacturer>
        </manufacturer>
        <substance>
          <code>
            <concept>
              <coding>
                <system value="https://gsrs.ncats.nih.gov/ginas/app/beta"/>
                <code value="9QHX048FRV"/>
                <display value="TALAZOPARIB"/>
              </coding>
            </concept>
          </code>
          <strength>
            <presentationQuantity>
              <value value="0.25"/>
              <unit value="mg"/>
            </presentationQuantity>
            <basis>
              <coding>
                <system value="http://terminology.hl7.org/CodeSystem/v3-RoleClass"/>
                <code value="ACTIB"/>
              </coding>
              <text value="active ingredient - basis of strength"/>
            </basis>
          </strength>
        </substance>
      </Ingredient>
    </resource>
  </entry>
  <entry>
    <fullUrl value="http://hl7.eu/fhir/ig/gravitate-health/Ingredient/talazoparib1mg"/>
    <resource>
      <Ingredient>
        <id value="talazoparib1mg"/>
        <meta>
          <profile value="http://hl7.org/fhir/uv/emedicinal-product-info/StructureDefinition/Ingredient-uv-epi"/>
        </meta>
        <text>
          <status value="generated"/><div xmlns="http://www.w3.org/1999/xhtml"><p><b>Generated Narrative: Ingredient</b><a name="talazoparib1mg"> </a></p><div style="display: inline-block; background-color: #d9e0e7; padding: 6px; margin: 4px; border: 1px solid #8da1b4; border-radius: 5px; line-height: 60%"><p style="margin-bottom: 0px">Resource Ingredient &quot;talazoparib1mg&quot; </p><p style="margin-bottom: 0px">Profile: <a href="https://build.fhir.org/ig/HL7/emedicinal-product-info//StructureDefinition-Ingredient-uv-epi.html">Ingredient (ePI)</a></p></div><p><b>identifier</b>: id: 9QHX048FRV (use: OFFICIAL)</p><p><b>status</b>: active</p><p><b>for</b>: <a href="#ManufacturedItemDefinition_mid025mg">See above (ManufacturedItemDefinition/mid025mg)</a></p><p><b>role</b>: Active <span style="background: LightGoldenRodYellow; margin: 4px; border: 1px solid khaki"> (rmswi#100000072072)</span></p><p><b>allergenicIndicator</b>: false</p><h3>Manufacturers</h3><table class="grid"><tr><td style="display: none">-</td><td><b>Manufacturer</b></td></tr><tr><td style="display: none">*</td><td><a href="#Organization_orgpfizerukltd">See above (Organization/orgpfizerukltd)</a></td></tr></table><blockquote><p><b>substance</b></p><h3>Codes</h3><table class="grid"><tr><td style="display: none">-</td><td><b>Concept</b></td></tr><tr><td style="display: none">*</td><td>TALAZOPARIB <span style="background: LightGoldenRodYellow; margin: 4px; border: 1px solid khaki"> (beta#9QHX048FRV)</span></td></tr></table><h3>Strengths</h3><table class="grid"><tr><td style="display: none">-</td><td><b>Presentation[x]</b></td><td><b>Basis</b></td></tr><tr><td style="display: none">*</td><td>1 mg</td><td>active ingredient - basis of strength <span style="background: LightGoldenRodYellow; margin: 4px; border: 1px solid khaki"> (<a href="http://terminology.hl7.org/5.3.0/CodeSystem-v3-RoleClass.html">RoleClass</a>#ACTIB)</span></td></tr></table></blockquote></div>
        </text>
        <identifier>
          <use value="official"/>
          <system value="https://gsrs.ncats.nih.gov/ginas/app/beta"/>
          <value value="9QHX048FRV"/>
        </identifier>
        <status value="active"/>
        <for>
          <reference value="ManufacturedItemDefinition/mid025mg"/>
        </for>
        <role>
          <coding>
            <system value="https://spor.ema.europa.eu/rmswi"/>
            <code value="100000072072"/>
            <display value="Active"/>
          </coding>
        </role>
        <allergenicIndicator value="false"/>
        <manufacturer>
          <manufacturer>
            <reference value="Organization/orgpfizerukltd"/>
          </manufacturer>
        </manufacturer>
        <substance>
          <code>
            <concept>
              <coding>
                <system value="https://gsrs.ncats.nih.gov/ginas/app/beta"/>
                <code value="9QHX048FRV"/>
                <display value="TALAZOPARIB"/>
              </coding>
            </concept>
          </code>
          <strength>
            <presentationQuantity>
              <value value="1"/>
              <unit value="mg"/>
            </presentationQuantity>
            <basis>
              <coding>
                <system value="http://terminology.hl7.org/CodeSystem/v3-RoleClass"/>
                <code value="ACTIB"/>
              </coding>
              <text value="active ingredient - basis of strength"/>
            </basis>
          </strength>
        </substance>
      </Ingredient>
    </resource>
  </entry>
  <entry>
    <fullUrl value="http://hl7.eu/fhir/ig/gravitate-health/Ingredient/ingredientMICROCRYSTALLINECELLULOSE"/>
    <resource>
      <Ingredient>
        <id value="ingredientMICROCRYSTALLINECELLULOSE"/>
        <meta>
          <profile value="http://hl7.org/fhir/uv/emedicinal-product-info/StructureDefinition/Ingredient-uv-epi"/>
        </meta>
        <text>
          <status value="generated"/><div xmlns="http://www.w3.org/1999/xhtml"><p><b>Generated Narrative: Ingredient</b><a name="ingredientMICROCRYSTALLINECELLULOSE"> </a></p><div style="display: inline-block; background-color: #d9e0e7; padding: 6px; margin: 4px; border: 1px solid #8da1b4; border-radius: 5px; line-height: 60%"><p style="margin-bottom: 0px">Resource Ingredient &quot;ingredientMICROCRYSTALLINECELLULOSE&quot; </p><p style="margin-bottom: 0px">Profile: <a href="https://build.fhir.org/ig/HL7/emedicinal-product-info//StructureDefinition-Ingredient-uv-epi.html">Ingredient (ePI)</a></p></div><p><b>identifier</b>: id: OP1R32D61U (use: OFFICIAL)</p><p><b>status</b>: active</p><p><b>for</b>: </p><ul><li><a href="#MedicinalProductDefinition_mp1mg">See above (MedicinalProductDefinition/mp1mg)</a></li><li><a href="#MedicinalProductDefinition_mp025mg">See above (MedicinalProductDefinition/mp025mg)</a></li></ul><p><b>role</b>: Excipient <span style="background: LightGoldenRodYellow; margin: 4px; border: 1px solid khaki"> (rmswi#100000072082)</span></p><p><b>allergenicIndicator</b>: false</p><h3>Manufacturers</h3><table class="grid"><tr><td style="display: none">-</td><td><b>Manufacturer</b></td></tr><tr><td style="display: none">*</td><td><a href="#Organization_orgpfizerukltd">See above (Organization/orgpfizerukltd)</a></td></tr></table><blockquote><p><b>substance</b></p><h3>Codes</h3><table class="grid"><tr><td style="display: none">-</td><td><b>Concept</b></td></tr><tr><td style="display: none">*</td><td>MICROCRYSTALLINE CELLULOSE <span style="background: LightGoldenRodYellow; margin: 4px; border: 1px solid khaki"> (beta#OP1R32D61U)</span></td></tr></table></blockquote></div>
        </text>
        <identifier>
          <use value="official"/>
          <system value="https://gsrs.ncats.nih.gov/ginas/app/beta"/>
          <value value="OP1R32D61U"/>
        </identifier>
        <status value="active"/>
        <for>
          <reference value="MedicinalProductDefinition/mp1mg"/>
        </for>
        <for>
          <reference value="MedicinalProductDefinition/mp025mg"/>
        </for>
        <role>
          <coding>
            <system value="https://spor.ema.europa.eu/rmswi"/>
            <code value="100000072082"/>
            <display value="Excipient"/>
          </coding>
        </role>
        <allergenicIndicator value="false"/>
        <manufacturer>
          <manufacturer>
            <reference value="Organization/orgpfizerukltd"/>
          </manufacturer>
        </manufacturer>
        <substance>
          <code>
            <concept>
              <coding>
                <system value="https://gsrs.ncats.nih.gov/ginas/app/beta"/>
                <code value="OP1R32D61U"/>
                <display value="MICROCRYSTALLINE CELLULOSE"/>
              </coding>
            </concept>
          </code>
        </substance>
      </Ingredient>
    </resource>
  </entry>
  <entry>
    <fullUrl value="http://hl7.eu/fhir/ig/gravitate-health/Ingredient/ingredientSILICONDIOXIDE"/>
    <resource>
      <Ingredient>
        <id value="ingredientSILICONDIOXIDE"/>
        <meta>
          <profile value="http://hl7.org/fhir/uv/emedicinal-product-info/StructureDefinition/Ingredient-uv-epi"/>
        </meta>
        <text>
          <status value="generated"/><div xmlns="http://www.w3.org/1999/xhtml"><p><b>Generated Narrative: Ingredient</b><a name="ingredientSILICONDIOXIDE"> </a></p><div style="display: inline-block; background-color: #d9e0e7; padding: 6px; margin: 4px; border: 1px solid #8da1b4; border-radius: 5px; line-height: 60%"><p style="margin-bottom: 0px">Resource Ingredient &quot;ingredientSILICONDIOXIDE&quot; </p><p style="margin-bottom: 0px">Profile: <a href="https://build.fhir.org/ig/HL7/emedicinal-product-info//StructureDefinition-Ingredient-uv-epi.html">Ingredient (ePI)</a></p></div><p><b>identifier</b>: id: ETJ7Z6XBU4 (use: OFFICIAL)</p><p><b>status</b>: active</p><p><b>for</b>: </p><ul><li><a href="#MedicinalProductDefinition_mp1mg">See above (MedicinalProductDefinition/mp1mg)</a></li><li><a href="#MedicinalProductDefinition_mp025mg">See above (MedicinalProductDefinition/mp025mg)</a></li></ul><p><b>role</b>: Excipient <span style="background: LightGoldenRodYellow; margin: 4px; border: 1px solid khaki"> (rmswi#100000072082)</span></p><p><b>allergenicIndicator</b>: false</p><h3>Manufacturers</h3><table class="grid"><tr><td style="display: none">-</td><td><b>Manufacturer</b></td></tr><tr><td style="display: none">*</td><td><a href="#Organization_orgpfizerukltd">See above (Organization/orgpfizerukltd)</a></td></tr></table><blockquote><p><b>substance</b></p><h3>Codes</h3><table class="grid"><tr><td style="display: none">-</td><td><b>Concept</b></td></tr><tr><td style="display: none">*</td><td>SILICON DIOXIDE <span style="background: LightGoldenRodYellow; margin: 4px; border: 1px solid khaki"> (beta#15FIX9V2JP)</span></td></tr></table></blockquote></div>
        </text>
        <identifier>
          <use value="official"/>
          <system value="https://gsrs.ncats.nih.gov/ginas/app/beta"/>
          <value value="ETJ7Z6XBU4"/>
        </identifier>
        <status value="active"/>
        <for>
          <reference value="MedicinalProductDefinition/mp1mg"/>
        </for>
        <for>
          <reference value="MedicinalProductDefinition/mp025mg"/>
        </for>
        <role>
          <coding>
            <system value="https://spor.ema.europa.eu/rmswi"/>
            <code value="100000072082"/>
            <display value="Excipient"/>
          </coding>
        </role>
        <allergenicIndicator value="false"/>
        <manufacturer>
          <manufacturer>
            <reference value="Organization/orgpfizerukltd"/>
          </manufacturer>
        </manufacturer>
        <substance>
          <code>
            <concept>
              <coding>
                <system value="https://gsrs.ncats.nih.gov/ginas/app/beta"/>
                <code value="15FIX9V2JP"/>
                <display value="SILICON DIOXIDE"/>
              </coding>
            </concept>
          </code>
        </substance>
      </Ingredient>
    </resource>
  </entry>
  <entry>
    <fullUrl value="http://hl7.eu/fhir/ig/gravitate-health/Ingredient/ingredientHYPROMELLOSE"/>
    <resource>
      <Ingredient>
        <id value="ingredientHYPROMELLOSE"/>
        <meta>
          <profile value="http://hl7.org/fhir/uv/emedicinal-product-info/StructureDefinition/Ingredient-uv-epi"/>
        </meta>
        <text>
          <status value="generated"/><div xmlns="http://www.w3.org/1999/xhtml"><p><b>Generated Narrative: Ingredient</b><a name="ingredientHYPROMELLOSE"> </a></p><div style="display: inline-block; background-color: #d9e0e7; padding: 6px; margin: 4px; border: 1px solid #8da1b4; border-radius: 5px; line-height: 60%"><p style="margin-bottom: 0px">Resource Ingredient &quot;ingredientHYPROMELLOSE&quot; </p><p style="margin-bottom: 0px">Profile: <a href="https://build.fhir.org/ig/HL7/emedicinal-product-info//StructureDefinition-Ingredient-uv-epi.html">Ingredient (ePI)</a></p></div><p><b>identifier</b>: id: 3NXW29V3WO (use: OFFICIAL)</p><p><b>status</b>: active</p><p><b>for</b>: </p><ul><li><a href="#MedicinalProductDefinition_mp1mg">See above (MedicinalProductDefinition/mp1mg)</a></li><li><a href="#MedicinalProductDefinition_mp025mg">See above (MedicinalProductDefinition/mp025mg)</a></li></ul><p><b>role</b>: Excipient <span style="background: LightGoldenRodYellow; margin: 4px; border: 1px solid khaki"> (rmswi#100000072082)</span></p><p><b>allergenicIndicator</b>: false</p><h3>Manufacturers</h3><table class="grid"><tr><td style="display: none">-</td><td><b>Manufacturer</b></td></tr><tr><td style="display: none">*</td><td><a href="#Organization_orgpfizerukltd">See above (Organization/orgpfizerukltd)</a></td></tr></table><blockquote><p><b>substance</b></p><h3>Codes</h3><table class="grid"><tr><td style="display: none">-</td><td><b>Concept</b></td></tr><tr><td style="display: none">*</td><td>HYPROMELLOSE, UNSPECIFIED <span style="background: LightGoldenRodYellow; margin: 4px; border: 1px solid khaki"> (beta#3NXW29V3WO)</span></td></tr></table><h3>Strengths</h3><table class="grid"><tr><td style="display: none">-</td><td><b>Basis</b></td></tr><tr><td style="display: none">*</td><td>active ingredient - basis of strength <span style="background: LightGoldenRodYellow; margin: 4px; border: 1px solid khaki"> (<a href="http://terminology.hl7.org/5.3.0/CodeSystem-v3-RoleClass.html">RoleClass</a>#ACTIB)</span></td></tr></table></blockquote></div>
        </text>
        <identifier>
          <use value="official"/>
          <system value="https://gsrs.ncats.nih.gov/ginas/app/beta"/>
          <value value="3NXW29V3WO"/>
        </identifier>
        <status value="active"/>
        <for>
          <reference value="MedicinalProductDefinition/mp1mg"/>
        </for>
        <for>
          <reference value="MedicinalProductDefinition/mp025mg"/>
        </for>
        <role>
          <coding>
            <system value="https://spor.ema.europa.eu/rmswi"/>
            <code value="100000072082"/>
            <display value="Excipient"/>
          </coding>
        </role>
        <allergenicIndicator value="false"/>
        <manufacturer>
          <manufacturer>
            <reference value="Organization/orgpfizerukltd"/>
          </manufacturer>
        </manufacturer>
        <substance>
          <code>
            <concept>
              <coding>
                <system value="https://gsrs.ncats.nih.gov/ginas/app/beta"/>
                <code value="3NXW29V3WO"/>
                <display value="HYPROMELLOSE, UNSPECIFIED"/>
              </coding>
            </concept>
          </code>
          <strength>
            <basis>
              <coding>
                <system value="http://terminology.hl7.org/CodeSystem/v3-RoleClass"/>
                <code value="ACTIB"/>
                <display value="active ingredient - basis of strength"/>
              </coding>
            </basis>
          </strength>
        </substance>
      </Ingredient>
    </resource>
  </entry>
  <entry>
    <fullUrl value="http://hl7.eu/fhir/ig/gravitate-health/Ingredient/ingredientFERRICOXIDEYELLOW"/>
    <resource>
      <Ingredient>
        <id value="ingredientFERRICOXIDEYELLOW"/>
        <meta>
          <profile value="http://hl7.org/fhir/uv/emedicinal-product-info/StructureDefinition/Ingredient-uv-epi"/>
        </meta>
        <text>
          <status value="generated"/><div xmlns="http://www.w3.org/1999/xhtml"><p><b>Generated Narrative: Ingredient</b><a name="ingredientFERRICOXIDEYELLOW"> </a></p><div style="display: inline-block; background-color: #d9e0e7; padding: 6px; margin: 4px; border: 1px solid #8da1b4; border-radius: 5px; line-height: 60%"><p style="margin-bottom: 0px">Resource Ingredient &quot;ingredientFERRICOXIDEYELLOW&quot; </p><p style="margin-bottom: 0px">Profile: <a href="https://build.fhir.org/ig/HL7/emedicinal-product-info//StructureDefinition-Ingredient-uv-epi.html">Ingredient (ePI)</a></p></div><p><b>identifier</b>: id: EX438O2MRT (use: OFFICIAL)</p><p><b>status</b>: active</p><p><b>for</b>: </p><ul><li><a href="#MedicinalProductDefinition_mp1mg">See above (MedicinalProductDefinition/mp1mg)</a></li><li><a href="#MedicinalProductDefinition_mp025mg">See above (MedicinalProductDefinition/mp025mg)</a></li></ul><p><b>role</b>: Excipient <span style="background: LightGoldenRodYellow; margin: 4px; border: 1px solid khaki"> (rmswi#100000072082)</span></p><p><b>allergenicIndicator</b>: false</p><h3>Manufacturers</h3><table class="grid"><tr><td style="display: none">-</td><td><b>Manufacturer</b></td></tr><tr><td style="display: none">*</td><td><a href="#Organization_orgpfizerukltd">See above (Organization/orgpfizerukltd)</a></td></tr></table><blockquote><p><b>substance</b></p><h3>Codes</h3><table class="grid"><tr><td style="display: none">-</td><td><b>Concept</b></td></tr><tr><td style="display: none">*</td><td>FERRIC OXIDE YELLOW <span style="background: LightGoldenRodYellow; margin: 4px; border: 1px solid khaki"> (beta#EX438O2MRT)</span></td></tr></table><h3>Strengths</h3><table class="grid"><tr><td style="display: none">-</td><td><b>Basis</b></td></tr><tr><td style="display: none">*</td><td>active ingredient - basis of strength <span style="background: LightGoldenRodYellow; margin: 4px; border: 1px solid khaki"> (<a href="http://terminology.hl7.org/5.3.0/CodeSystem-v3-RoleClass.html">RoleClass</a>#ACTIB)</span></td></tr></table></blockquote></div>
        </text>
        <identifier>
          <use value="official"/>
          <system value="https://gsrs.ncats.nih.gov/ginas/app/beta"/>
          <value value="EX438O2MRT"/>
        </identifier>
        <status value="active"/>
        <for>
          <reference value="MedicinalProductDefinition/mp1mg"/>
        </for>
        <for>
          <reference value="MedicinalProductDefinition/mp025mg"/>
        </for>
        <role>
          <coding>
            <system value="https://spor.ema.europa.eu/rmswi"/>
            <code value="100000072082"/>
            <display value="Excipient"/>
          </coding>
        </role>
        <allergenicIndicator value="false"/>
        <manufacturer>
          <manufacturer>
            <reference value="Organization/orgpfizerukltd"/>
          </manufacturer>
        </manufacturer>
        <substance>
          <code>
            <concept>
              <coding>
                <system value="https://gsrs.ncats.nih.gov/ginas/app/beta"/>
                <code value="EX438O2MRT"/>
                <display value="FERRIC OXIDE YELLOW"/>
              </coding>
            </concept>
          </code>
          <strength>
            <basis>
              <coding>
                <system value="http://terminology.hl7.org/CodeSystem/v3-RoleClass"/>
                <code value="ACTIB"/>
                <display value="active ingredient - basis of strength"/>
              </coding>
            </basis>
          </strength>
        </substance>
      </Ingredient>
    </resource>
  </entry>
  <entry>
    <fullUrl value="http://hl7.eu/fhir/ig/gravitate-health/Ingredient/ingredientTITANIUMDIOXIDE"/>
    <resource>
      <Ingredient>
        <id value="ingredientTITANIUMDIOXIDE"/>
        <meta>
          <profile value="http://hl7.org/fhir/uv/emedicinal-product-info/StructureDefinition/Ingredient-uv-epi"/>
        </meta>
        <text>
          <status value="generated"/><div xmlns="http://www.w3.org/1999/xhtml"><p><b>Generated Narrative: Ingredient</b><a name="ingredientTITANIUMDIOXIDE"> </a></p><div style="display: inline-block; background-color: #d9e0e7; padding: 6px; margin: 4px; border: 1px solid #8da1b4; border-radius: 5px; line-height: 60%"><p style="margin-bottom: 0px">Resource Ingredient &quot;ingredientTITANIUMDIOXIDE&quot; </p><p style="margin-bottom: 0px">Profile: <a href="https://build.fhir.org/ig/HL7/emedicinal-product-info//StructureDefinition-Ingredient-uv-epi.html">Ingredient (ePI)</a></p></div><p><b>identifier</b>: id: 15FIX9V2JP (use: OFFICIAL)</p><p><b>status</b>: active</p><p><b>for</b>: </p><ul><li><a href="#MedicinalProductDefinition_mp1mg">See above (MedicinalProductDefinition/mp1mg)</a></li><li><a href="#MedicinalProductDefinition_mp025mg">See above (MedicinalProductDefinition/mp025mg)</a></li></ul><p><b>role</b>: Excipient <span style="background: LightGoldenRodYellow; margin: 4px; border: 1px solid khaki"> (rmswi#100000072082)</span></p><p><b>allergenicIndicator</b>: false</p><h3>Manufacturers</h3><table class="grid"><tr><td style="display: none">-</td><td><b>Manufacturer</b></td></tr><tr><td style="display: none">*</td><td><a href="#Organization_orgpfizerukltd">See above (Organization/orgpfizerukltd)</a></td></tr></table><blockquote><p><b>substance</b></p><h3>Codes</h3><table class="grid"><tr><td style="display: none">-</td><td><b>Concept</b></td></tr><tr><td style="display: none">*</td><td>TITANIUM DIOXIDE <span style="background: LightGoldenRodYellow; margin: 4px; border: 1px solid khaki"> (beta#15FIX9V2JP)</span></td></tr></table><h3>Strengths</h3><table class="grid"><tr><td style="display: none">-</td><td><b>Basis</b></td></tr><tr><td style="display: none">*</td><td>active ingredient - basis of strength <span style="background: LightGoldenRodYellow; margin: 4px; border: 1px solid khaki"> (<a href="http://terminology.hl7.org/5.3.0/CodeSystem-v3-RoleClass.html">RoleClass</a>#ACTIB)</span></td></tr></table></blockquote></div>
        </text>
        <identifier>
          <use value="official"/>
          <system value="https://gsrs.ncats.nih.gov/ginas/app/beta"/>
          <value value="15FIX9V2JP"/>
        </identifier>
        <status value="active"/>
        <for>
          <reference value="MedicinalProductDefinition/mp1mg"/>
        </for>
        <for>
          <reference value="MedicinalProductDefinition/mp025mg"/>
        </for>
        <role>
          <coding>
            <system value="https://spor.ema.europa.eu/rmswi"/>
            <code value="100000072082"/>
            <display value="Excipient"/>
          </coding>
        </role>
        <allergenicIndicator value="false"/>
        <manufacturer>
          <manufacturer>
            <reference value="Organization/orgpfizerukltd"/>
          </manufacturer>
        </manufacturer>
        <substance>
          <code>
            <concept>
              <coding>
                <system value="https://gsrs.ncats.nih.gov/ginas/app/beta"/>
                <code value="15FIX9V2JP"/>
                <display value="TITANIUM DIOXIDE"/>
              </coding>
            </concept>
          </code>
          <strength>
            <basis>
              <coding>
                <system value="http://terminology.hl7.org/CodeSystem/v3-RoleClass"/>
                <code value="ACTIB"/>
                <display value="active ingredient - basis of strength"/>
              </coding>
            </basis>
          </strength>
        </substance>
      </Ingredient>
    </resource>
  </entry>
  <entry>
    <fullUrl value="http://hl7.eu/fhir/ig/gravitate-health/Ingredient/ingredientFERRICOXIDERED"/>
    <resource>
      <Ingredient>
        <id value="ingredientFERRICOXIDERED"/>
        <meta>
          <profile value="http://hl7.org/fhir/uv/emedicinal-product-info/StructureDefinition/Ingredient-uv-epi"/>
        </meta>
        <text>
          <status value="generated"/><div xmlns="http://www.w3.org/1999/xhtml"><p><b>Generated Narrative: Ingredient</b><a name="ingredientFERRICOXIDERED"> </a></p><div style="display: inline-block; background-color: #d9e0e7; padding: 6px; margin: 4px; border: 1px solid #8da1b4; border-radius: 5px; line-height: 60%"><p style="margin-bottom: 0px">Resource Ingredient &quot;ingredientFERRICOXIDERED&quot; </p><p style="margin-bottom: 0px">Profile: <a href="https://build.fhir.org/ig/HL7/emedicinal-product-info//StructureDefinition-Ingredient-uv-epi.html">Ingredient (ePI)</a></p></div><p><b>identifier</b>: id: 1K09F3G675 (use: OFFICIAL)</p><p><b>status</b>: active</p><p><b>for</b>: </p><ul><li><a href="#MedicinalProductDefinition_mp1mg">See above (MedicinalProductDefinition/mp1mg)</a></li><li><a href="#MedicinalProductDefinition_mp025mg">See above (MedicinalProductDefinition/mp025mg)</a></li></ul><p><b>role</b>: Excipient <span style="background: LightGoldenRodYellow; margin: 4px; border: 1px solid khaki"> (rmswi#100000072082)</span></p><p><b>allergenicIndicator</b>: false</p><h3>Manufacturers</h3><table class="grid"><tr><td style="display: none">-</td><td><b>Manufacturer</b></td></tr><tr><td style="display: none">*</td><td><a href="#Organization_orgpfizerukltd">See above (Organization/orgpfizerukltd)</a></td></tr></table><blockquote><p><b>substance</b></p><h3>Codes</h3><table class="grid"><tr><td style="display: none">-</td><td><b>Concept</b></td></tr><tr><td style="display: none">*</td><td>FERRIC OXIDE RED <span style="background: LightGoldenRodYellow; margin: 4px; border: 1px solid khaki"> (beta#1K09F3G675)</span></td></tr></table><h3>Strengths</h3><table class="grid"><tr><td style="display: none">-</td><td><b>Basis</b></td></tr><tr><td style="display: none">*</td><td>active ingredient - basis of strength <span style="background: LightGoldenRodYellow; margin: 4px; border: 1px solid khaki"> (<a href="http://terminology.hl7.org/5.3.0/CodeSystem-v3-RoleClass.html">RoleClass</a>#ACTIB)</span></td></tr></table></blockquote></div>
        </text>
        <identifier>
          <use value="official"/>
          <system value="https://gsrs.ncats.nih.gov/ginas/app/beta"/>
          <value value="1K09F3G675"/>
        </identifier>
        <status value="active"/>
        <for>
          <reference value="MedicinalProductDefinition/mp1mg"/>
        </for>
        <for>
          <reference value="MedicinalProductDefinition/mp025mg"/>
        </for>
        <role>
          <coding>
            <system value="https://spor.ema.europa.eu/rmswi"/>
            <code value="100000072082"/>
            <display value="Excipient"/>
          </coding>
        </role>
        <allergenicIndicator value="false"/>
        <manufacturer>
          <manufacturer>
            <reference value="Organization/orgpfizerukltd"/>
          </manufacturer>
        </manufacturer>
        <substance>
          <code>
            <concept>
              <coding>
                <system value="https://gsrs.ncats.nih.gov/ginas/app/beta"/>
                <code value="1K09F3G675"/>
                <display value="FERRIC OXIDE RED"/>
              </coding>
            </concept>
          </code>
          <strength>
            <basis>
              <coding>
                <system value="http://terminology.hl7.org/CodeSystem/v3-RoleClass"/>
                <code value="ACTIB"/>
                <display value="active ingredient - basis of strength"/>
              </coding>
            </basis>
          </strength>
        </substance>
      </Ingredient>
    </resource>
  </entry>
  <entry>
    <fullUrl value="http://hl7.eu/fhir/ig/gravitate-health/Ingredient/ingredientSHELLAC"/>
    <resource>
      <Ingredient>
        <id value="ingredientSHELLAC"/>
        <meta>
          <profile value="http://hl7.org/fhir/uv/emedicinal-product-info/StructureDefinition/Ingredient-uv-epi"/>
        </meta>
        <text>
          <status value="generated"/><div xmlns="http://www.w3.org/1999/xhtml"><p><b>Generated Narrative: Ingredient</b><a name="ingredientSHELLAC"> </a></p><div style="display: inline-block; background-color: #d9e0e7; padding: 6px; margin: 4px; border: 1px solid #8da1b4; border-radius: 5px; line-height: 60%"><p style="margin-bottom: 0px">Resource Ingredient &quot;ingredientSHELLAC&quot; </p><p style="margin-bottom: 0px">Profile: <a href="https://build.fhir.org/ig/HL7/emedicinal-product-info//StructureDefinition-Ingredient-uv-epi.html">Ingredient (ePI)</a></p></div><p><b>identifier</b>: id: 46N107B71O (use: OFFICIAL)</p><p><b>status</b>: active</p><p><b>for</b>: </p><ul><li><a href="#MedicinalProductDefinition_mp1mg">See above (MedicinalProductDefinition/mp1mg)</a></li><li><a href="#MedicinalProductDefinition_mp025mg">See above (MedicinalProductDefinition/mp025mg)</a></li></ul><p><b>role</b>: Excipient <span style="background: LightGoldenRodYellow; margin: 4px; border: 1px solid khaki"> (rmswi#100000072082)</span></p><p><b>allergenicIndicator</b>: false</p><h3>Manufacturers</h3><table class="grid"><tr><td style="display: none">-</td><td><b>Manufacturer</b></td></tr><tr><td style="display: none">*</td><td><a href="#Organization_orgpfizerukltd">See above (Organization/orgpfizerukltd)</a></td></tr></table><blockquote><p><b>substance</b></p><h3>Codes</h3><table class="grid"><tr><td style="display: none">-</td><td><b>Concept</b></td></tr><tr><td style="display: none">*</td><td>SHELLAC <span style="background: LightGoldenRodYellow; margin: 4px; border: 1px solid khaki"> (beta#46N107B71O)</span></td></tr></table><h3>Strengths</h3><table class="grid"><tr><td style="display: none">-</td><td><b>Basis</b></td></tr><tr><td style="display: none">*</td><td>active ingredient - basis of strength <span style="background: LightGoldenRodYellow; margin: 4px; border: 1px solid khaki"> (<a href="http://terminology.hl7.org/5.3.0/CodeSystem-v3-RoleClass.html">RoleClass</a>#ACTIB)</span></td></tr></table></blockquote></div>
        </text>
        <identifier>
          <use value="official"/>
          <system value="https://gsrs.ncats.nih.gov/ginas/app/beta"/>
          <value value="46N107B71O"/>
        </identifier>
        <status value="active"/>
        <for>
          <reference value="MedicinalProductDefinition/mp1mg"/>
        </for>
        <for>
          <reference value="MedicinalProductDefinition/mp025mg"/>
        </for>
        <role>
          <coding>
            <system value="https://spor.ema.europa.eu/rmswi"/>
            <code value="100000072082"/>
            <display value="Excipient"/>
          </coding>
        </role>
        <allergenicIndicator value="false"/>
        <manufacturer>
          <manufacturer>
            <reference value="Organization/orgpfizerukltd"/>
          </manufacturer>
        </manufacturer>
        <substance>
          <code>
            <concept>
              <coding>
                <system value="https://gsrs.ncats.nih.gov/ginas/app/beta"/>
                <code value="46N107B71O"/>
                <display value="SHELLAC"/>
              </coding>
            </concept>
          </code>
          <strength>
            <basis>
              <coding>
                <system value="http://terminology.hl7.org/CodeSystem/v3-RoleClass"/>
                <code value="ACTIB"/>
                <display value="active ingredient - basis of strength"/>
              </coding>
            </basis>
          </strength>
        </substance>
      </Ingredient>
    </resource>
  </entry>
  <entry>
    <fullUrl value="http://hl7.eu/fhir/ig/gravitate-health/Ingredient/ingredientPROPYLENEGLYCOL"/>
    <resource>
      <Ingredient>
        <id value="ingredientPROPYLENEGLYCOL"/>
        <meta>
          <profile value="http://hl7.org/fhir/uv/emedicinal-product-info/StructureDefinition/Ingredient-uv-epi"/>
        </meta>
        <text>
          <status value="generated"/><div xmlns="http://www.w3.org/1999/xhtml"><p><b>Generated Narrative: Ingredient</b><a name="ingredientPROPYLENEGLYCOL"> </a></p><div style="display: inline-block; background-color: #d9e0e7; padding: 6px; margin: 4px; border: 1px solid #8da1b4; border-radius: 5px; line-height: 60%"><p style="margin-bottom: 0px">Resource Ingredient &quot;ingredientPROPYLENEGLYCOL&quot; </p><p style="margin-bottom: 0px">Profile: <a href="https://build.fhir.org/ig/HL7/emedicinal-product-info//StructureDefinition-Ingredient-uv-epi.html">Ingredient (ePI)</a></p></div><p><b>identifier</b>: id: 6DC9Q167V3 (use: OFFICIAL)</p><p><b>status</b>: active</p><p><b>for</b>: </p><ul><li><a href="#MedicinalProductDefinition_mp1mg">See above (MedicinalProductDefinition/mp1mg)</a></li><li><a href="#MedicinalProductDefinition_mp025mg">See above (MedicinalProductDefinition/mp025mg)</a></li></ul><p><b>role</b>: Excipient <span style="background: LightGoldenRodYellow; margin: 4px; border: 1px solid khaki"> (rmswi#100000072082)</span></p><p><b>allergenicIndicator</b>: false</p><h3>Manufacturers</h3><table class="grid"><tr><td style="display: none">-</td><td><b>Manufacturer</b></td></tr><tr><td style="display: none">*</td><td><a href="#Organization_orgpfizerukltd">See above (Organization/orgpfizerukltd)</a></td></tr></table><blockquote><p><b>substance</b></p><h3>Codes</h3><table class="grid"><tr><td style="display: none">-</td><td><b>Concept</b></td></tr><tr><td style="display: none">*</td><td>PROPYLENE GLYCOL <span style="background: LightGoldenRodYellow; margin: 4px; border: 1px solid khaki"> (beta#6DC9Q167V3)</span></td></tr></table><h3>Strengths</h3><table class="grid"><tr><td style="display: none">-</td><td><b>Basis</b></td></tr><tr><td style="display: none">*</td><td>active ingredient - basis of strength <span style="background: LightGoldenRodYellow; margin: 4px; border: 1px solid khaki"> (<a href="http://terminology.hl7.org/5.3.0/CodeSystem-v3-RoleClass.html">RoleClass</a>#ACTIB)</span></td></tr></table></blockquote></div>
        </text>
        <identifier>
          <use value="official"/>
          <system value="https://gsrs.ncats.nih.gov/ginas/app/beta"/>
          <value value="6DC9Q167V3"/>
        </identifier>
        <status value="active"/>
        <for>
          <reference value="MedicinalProductDefinition/mp1mg"/>
        </for>
        <for>
          <reference value="MedicinalProductDefinition/mp025mg"/>
        </for>
        <role>
          <coding>
            <system value="https://spor.ema.europa.eu/rmswi"/>
            <code value="100000072082"/>
            <display value="Excipient"/>
          </coding>
        </role>
        <allergenicIndicator value="false"/>
        <manufacturer>
          <manufacturer>
            <reference value="Organization/orgpfizerukltd"/>
          </manufacturer>
        </manufacturer>
        <substance>
          <code>
            <concept>
              <coding>
                <system value="https://gsrs.ncats.nih.gov/ginas/app/beta"/>
                <code value="6DC9Q167V3"/>
                <display value="PROPYLENE GLYCOL"/>
              </coding>
            </concept>
          </code>
          <strength>
            <basis>
              <coding>
                <system value="http://terminology.hl7.org/CodeSystem/v3-RoleClass"/>
                <code value="ACTIB"/>
                <display value="active ingredient - basis of strength"/>
              </coding>
            </basis>
          </strength>
        </substance>
      </Ingredient>
    </resource>
  </entry>
  <entry>
    <fullUrl value="http://hl7.eu/fhir/ig/gravitate-health/Ingredient/ingredientAMMONIUMHYDROXIDE"/>
    <resource>
      <Ingredient>
        <id value="ingredientAMMONIUMHYDROXIDE"/>
        <meta>
          <profile value="http://hl7.org/fhir/uv/emedicinal-product-info/StructureDefinition/Ingredient-uv-epi"/>
        </meta>
        <text>
          <status value="generated"/><div xmlns="http://www.w3.org/1999/xhtml"><p><b>Generated Narrative: Ingredient</b><a name="ingredientAMMONIUMHYDROXIDE"> </a></p><div style="display: inline-block; background-color: #d9e0e7; padding: 6px; margin: 4px; border: 1px solid #8da1b4; border-radius: 5px; line-height: 60%"><p style="margin-bottom: 0px">Resource Ingredient &quot;ingredientAMMONIUMHYDROXIDE&quot; </p><p style="margin-bottom: 0px">Profile: <a href="https://build.fhir.org/ig/HL7/emedicinal-product-info//StructureDefinition-Ingredient-uv-epi.html">Ingredient (ePI)</a></p></div><p><b>identifier</b>: id: 5138Q19F1X (use: OFFICIAL)</p><p><b>status</b>: active</p><p><b>for</b>: </p><ul><li><a href="#MedicinalProductDefinition_mp1mg">See above (MedicinalProductDefinition/mp1mg)</a></li><li><a href="#MedicinalProductDefinition_mp025mg">See above (MedicinalProductDefinition/mp025mg)</a></li></ul><p><b>role</b>: Excipient <span style="background: LightGoldenRodYellow; margin: 4px; border: 1px solid khaki"> (rmswi#100000072082)</span></p><p><b>allergenicIndicator</b>: false</p><h3>Manufacturers</h3><table class="grid"><tr><td style="display: none">-</td><td><b>Manufacturer</b></td></tr><tr><td style="display: none">*</td><td><a href="#Organization_orgpfizerukltd">See above (Organization/orgpfizerukltd)</a></td></tr></table><blockquote><p><b>substance</b></p><h3>Codes</h3><table class="grid"><tr><td style="display: none">-</td><td><b>Concept</b></td></tr><tr><td style="display: none">*</td><td>AMMONIUM HYDROXIDE <span style="background: LightGoldenRodYellow; margin: 4px; border: 1px solid khaki"> (beta#5138Q19F1X)</span></td></tr></table><h3>Strengths</h3><table class="grid"><tr><td style="display: none">-</td><td><b>Basis</b></td></tr><tr><td style="display: none">*</td><td>active ingredient - basis of strength <span style="background: LightGoldenRodYellow; margin: 4px; border: 1px solid khaki"> (<a href="http://terminology.hl7.org/5.3.0/CodeSystem-v3-RoleClass.html">RoleClass</a>#ACTIB)</span></td></tr></table></blockquote></div>
        </text>
        <identifier>
          <use value="official"/>
          <system value="https://gsrs.ncats.nih.gov/ginas/app/beta"/>
          <value value="5138Q19F1X"/>
        </identifier>
        <status value="active"/>
        <for>
          <reference value="MedicinalProductDefinition/mp1mg"/>
        </for>
        <for>
          <reference value="MedicinalProductDefinition/mp025mg"/>
        </for>
        <role>
          <coding>
            <system value="https://spor.ema.europa.eu/rmswi"/>
            <code value="100000072082"/>
            <display value="Excipient"/>
          </coding>
        </role>
        <allergenicIndicator value="false"/>
        <manufacturer>
          <manufacturer>
            <reference value="Organization/orgpfizerukltd"/>
          </manufacturer>
        </manufacturer>
        <substance>
          <code>
            <concept>
              <coding>
                <system value="https://gsrs.ncats.nih.gov/ginas/app/beta"/>
                <code value="5138Q19F1X"/>
                <display value="AMMONIUM HYDROXIDE"/>
              </coding>
            </concept>
          </code>
          <strength>
            <basis>
              <coding>
                <system value="http://terminology.hl7.org/CodeSystem/v3-RoleClass"/>
                <code value="ACTIB"/>
                <display value="active ingredient - basis of strength"/>
              </coding>
            </basis>
          </strength>
        </substance>
      </Ingredient>
    </resource>
  </entry>
  <entry>
    <fullUrl value="http://hl7.eu/fhir/ig/gravitate-health/Ingredient/ingredientFERROSOFERRICOXIDE"/>
    <resource>
      <Ingredient>
        <id value="ingredientFERROSOFERRICOXIDE"/>
        <meta>
          <profile value="http://hl7.org/fhir/uv/emedicinal-product-info/StructureDefinition/Ingredient-uv-epi"/>
        </meta>
        <text>
          <status value="generated"/><div xmlns="http://www.w3.org/1999/xhtml"><p><b>Generated Narrative: Ingredient</b><a name="ingredientFERROSOFERRICOXIDE"> </a></p><div style="display: inline-block; background-color: #d9e0e7; padding: 6px; margin: 4px; border: 1px solid #8da1b4; border-radius: 5px; line-height: 60%"><p style="margin-bottom: 0px">Resource Ingredient &quot;ingredientFERROSOFERRICOXIDE&quot; </p><p style="margin-bottom: 0px">Profile: <a href="https://build.fhir.org/ig/HL7/emedicinal-product-info//StructureDefinition-Ingredient-uv-epi.html">Ingredient (ePI)</a></p></div><p><b>identifier</b>: id: XM0M87F357 (use: OFFICIAL)</p><p><b>status</b>: active</p><p><b>for</b>: </p><ul><li><a href="#MedicinalProductDefinition_mp1mg">See above (MedicinalProductDefinition/mp1mg)</a></li><li><a href="#MedicinalProductDefinition_mp025mg">See above (MedicinalProductDefinition/mp025mg)</a></li></ul><p><b>role</b>: Excipient <span style="background: LightGoldenRodYellow; margin: 4px; border: 1px solid khaki"> (rmswi#100000072082)</span></p><p><b>allergenicIndicator</b>: false</p><h3>Manufacturers</h3><table class="grid"><tr><td style="display: none">-</td><td><b>Manufacturer</b></td></tr><tr><td style="display: none">*</td><td><a href="#Organization_orgpfizerukltd">See above (Organization/orgpfizerukltd)</a></td></tr></table><blockquote><p><b>substance</b></p><h3>Codes</h3><table class="grid"><tr><td style="display: none">-</td><td><b>Concept</b></td></tr><tr><td style="display: none">*</td><td>FERROSOFERRIC OXIDE <span style="background: LightGoldenRodYellow; margin: 4px; border: 1px solid khaki"> (beta#XM0M87F357)</span></td></tr></table><h3>Strengths</h3><table class="grid"><tr><td style="display: none">-</td><td><b>Basis</b></td></tr><tr><td style="display: none">*</td><td>active ingredient - basis of strength <span style="background: LightGoldenRodYellow; margin: 4px; border: 1px solid khaki"> (<a href="http://terminology.hl7.org/5.3.0/CodeSystem-v3-RoleClass.html">RoleClass</a>#ACTIB)</span></td></tr></table></blockquote></div>
        </text>
        <identifier>
          <use value="official"/>
          <system value="https://gsrs.ncats.nih.gov/ginas/app/beta"/>
          <value value="XM0M87F357"/>
        </identifier>
        <status value="active"/>
        <for>
          <reference value="MedicinalProductDefinition/mp1mg"/>
        </for>
        <for>
          <reference value="MedicinalProductDefinition/mp025mg"/>
        </for>
        <role>
          <coding>
            <system value="https://spor.ema.europa.eu/rmswi"/>
            <code value="100000072082"/>
            <display value="Excipient"/>
          </coding>
        </role>
        <allergenicIndicator value="false"/>
        <manufacturer>
          <manufacturer>
            <reference value="Organization/orgpfizerukltd"/>
          </manufacturer>
        </manufacturer>
        <substance>
          <code>
            <concept>
              <coding>
                <system value="https://gsrs.ncats.nih.gov/ginas/app/beta"/>
                <code value="XM0M87F357"/>
                <display value="FERROSOFERRIC OXIDE"/>
              </coding>
            </concept>
          </code>
          <strength>
            <basis>
              <coding>
                <system value="http://terminology.hl7.org/CodeSystem/v3-RoleClass"/>
                <code value="ACTIB"/>
                <display value="active ingredient - basis of strength"/>
              </coding>
            </basis>
          </strength>
        </substance>
      </Ingredient>
    </resource>
  </entry>
  <entry>
    <fullUrl value="http://hl7.eu/fhir/ig/gravitate-health/Ingredient/ingredientPotassiumhydroxide"/>
    <resource>
      <Ingredient>
        <id value="ingredientPotassiumhydroxide"/>
        <meta>
          <profile value="http://hl7.org/fhir/uv/emedicinal-product-info/StructureDefinition/Ingredient-uv-epi"/>
        </meta>
        <text>
          <status value="generated"/><div xmlns="http://www.w3.org/1999/xhtml"><p><b>Generated Narrative: Ingredient</b><a name="ingredientPotassiumhydroxide"> </a></p><div style="display: inline-block; background-color: #d9e0e7; padding: 6px; margin: 4px; border: 1px solid #8da1b4; border-radius: 5px; line-height: 60%"><p style="margin-bottom: 0px">Resource Ingredient &quot;ingredientPotassiumhydroxide&quot; </p><p style="margin-bottom: 0px">Profile: <a href="https://build.fhir.org/ig/HL7/emedicinal-product-info//StructureDefinition-Ingredient-uv-epi.html">Ingredient (ePI)</a></p></div><p><b>identifier</b>: id: WZH3C48M4T (use: OFFICIAL)</p><p><b>status</b>: active</p><p><b>for</b>: </p><ul><li><a href="#MedicinalProductDefinition_mp1mg">See above (MedicinalProductDefinition/mp1mg)</a></li><li><a href="#MedicinalProductDefinition_mp025mg">See above (MedicinalProductDefinition/mp025mg)</a></li></ul><p><b>role</b>: Excipient <span style="background: LightGoldenRodYellow; margin: 4px; border: 1px solid khaki"> (rmswi#100000072082)</span></p><p><b>allergenicIndicator</b>: false</p><h3>Manufacturers</h3><table class="grid"><tr><td style="display: none">-</td><td><b>Manufacturer</b></td></tr><tr><td style="display: none">*</td><td><a href="#Organization_orgpfizerukltd">See above (Organization/orgpfizerukltd)</a></td></tr></table><blockquote><p><b>substance</b></p><h3>Codes</h3><table class="grid"><tr><td style="display: none">-</td><td><b>Concept</b></td></tr><tr><td style="display: none">*</td><td>Potassium hydroxide <span style="background: LightGoldenRodYellow; margin: 4px; border: 1px solid khaki"> (beta#WZH3C48M4T)</span></td></tr></table><h3>Strengths</h3><table class="grid"><tr><td style="display: none">-</td><td><b>Basis</b></td></tr><tr><td style="display: none">*</td><td>active ingredient - basis of strength <span style="background: LightGoldenRodYellow; margin: 4px; border: 1px solid khaki"> (<a href="http://terminology.hl7.org/5.3.0/CodeSystem-v3-RoleClass.html">RoleClass</a>#ACTIB)</span></td></tr></table></blockquote></div>
        </text>
        <identifier>
          <use value="official"/>
          <system value="https://gsrs.ncats.nih.gov/ginas/app/beta"/>
          <value value="WZH3C48M4T"/>
        </identifier>
        <status value="active"/>
        <for>
          <reference value="MedicinalProductDefinition/mp1mg"/>
        </for>
        <for>
          <reference value="MedicinalProductDefinition/mp025mg"/>
        </for>
        <role>
          <coding>
            <system value="https://spor.ema.europa.eu/rmswi"/>
            <code value="100000072082"/>
            <display value="Excipient"/>
          </coding>
        </role>
        <allergenicIndicator value="false"/>
        <manufacturer>
          <manufacturer>
            <reference value="Organization/orgpfizerukltd"/>
          </manufacturer>
        </manufacturer>
        <substance>
          <code>
            <concept>
              <coding>
                <system value="https://gsrs.ncats.nih.gov/ginas/app/beta"/>
                <code value="WZH3C48M4T"/>
                <display value="Potassium hydroxide"/>
              </coding>
            </concept>
          </code>
          <strength>
            <basis>
              <coding>
                <system value="http://terminology.hl7.org/CodeSystem/v3-RoleClass"/>
                <code value="ACTIB"/>
                <display value="active ingredient - basis of strength"/>
              </coding>
            </basis>
          </strength>
        </substance>
      </Ingredient>
    </resource>
  </entry>
  <entry>
    <fullUrl value="http://hl7.eu/fhir/ig/gravitate-health/SubstanceDefinition/substancetalazoparib"/>
    <resource>
      <SubstanceDefinition>
        <id value="substancetalazoparib"/>
        <text>
          <status value="generated"/><div xmlns="http://www.w3.org/1999/xhtml"><p><b>Generated Narrative: SubstanceDefinition</b><a name="substancetalazoparib"> </a></p><div style="display: inline-block; background-color: #d9e0e7; padding: 6px; margin: 4px; border: 1px solid #8da1b4; border-radius: 5px; line-height: 60%"><p style="margin-bottom: 0px">Resource SubstanceDefinition &quot;substancetalazoparib&quot; </p></div><p><b>identifier</b>: id: 9QHX048FRV (use: OFFICIAL)</p><p><b>version</b>: 1</p><p><b>status</b>: Validated (UNII) <span style="background: LightGoldenRodYellow; margin: 4px; border: 1px solid khaki"> (#1)</span></p><p><b>manufacturer</b>: <a href="#Organization_orgpfizerukltd">See above (Organization/orgpfizerukltd)</a></p><h3>MolecularWeights</h3><table class="grid"><tr><td style="display: none">-</td><td><b>Type</b></td><td><b>Amount</b></td></tr><tr><td style="display: none">*</td><td>exact <span style="background: LightGoldenRodYellow; margin: 4px; border: 1px solid khaki"> ()</span></td><td>380.35</td></tr></table><h3>Structures</h3><table class="grid"><tr><td style="display: none">-</td><td><b>MolecularFormula</b></td></tr><tr><td style="display: none">*</td><td>C19H14F2N6O</td></tr></table><h3>Names</h3><table class="grid"><tr><td style="display: none">-</td><td><b>Name</b></td><td><b>Type</b></td></tr><tr><td style="display: none">*</td><td>(8S,9R)-5-fluoro-8-(4-fluorophenyl)-9-(1-methyl-1H-1,2,4-triazol-5-yl)-2,7,8,9-tetrahydro-3H-pyrido[4,3,2-de]phthalazin-3-one</td><td>Chemical Name <span style="background: LightGoldenRodYellow; margin: 4px; border: 1px solid khaki"> (#x)</span></td></tr></table></div>
        </text>
        <identifier>
          <use value="official"/>
          <system value="https://gsrs.ncats.nih.gov/ginas/app/beta/"/>
          <value value="9QHX048FRV"/>
        </identifier>
        <version value="1"/>
        <status>
          <coding>
            <system value="https://gsrs.ncats.nih.gov/ginas/app/beta/"/>
            <code value="1"/>
            <display value="Validated (UNII)"/>
          </coding>
        </status>
        <manufacturer>
          <reference value="Organization/orgpfizerukltd"/>
        </manufacturer>
        <molecularWeight>
          <type>
            <text value="exact"/>
          </type>
          <amount>
            <value value="380.35"/>
          </amount>
        </molecularWeight>
        <structure>
          <molecularFormula value="C19H14F2N6O"/>
        </structure>
        <name>
          <name value="(8S,9R)-5-fluoro-8-(4-fluorophenyl)-9-(1-methyl-1H-1,2,4-triazol-5-yl)-2,7,8,9-tetrahydro-3H-pyrido[4,3,2-de]phthalazin-3-one"/>
          <type>
            <coding>
              <system value="https://gsrs.ncats.nih.gov/ginas/app/beta/"/>
              <code value="x"/>
              <display value="Chemical Name"/>
            </coding>
          </type>
        </name>
      </SubstanceDefinition>
    </resource>
  </entry>
  <entry>
    <fullUrl value="http://hl7.eu/fhir/ig/gravitate-health/ManufacturedItemDefinition/mid025mg"/>
    <resource>
      <ManufacturedItemDefinition>
        <id value="mid025mg"/>
        <meta>
          <profile value="http://hl7.org/fhir/uv/emedicinal-product-info/StructureDefinition/ManufacturedItemDefinition-uv-epi"/>
        </meta>
        <text>
          <status value="generated"/><div xmlns="http://www.w3.org/1999/xhtml"><p><b>Generated Narrative: ManufacturedItemDefinition</b><a name="mid025mg"> </a></p><div style="display: inline-block; background-color: #d9e0e7; padding: 6px; margin: 4px; border: 1px solid #8da1b4; border-radius: 5px; line-height: 60%"><p style="margin-bottom: 0px">Resource ManufacturedItemDefinition &quot;mid025mg&quot; </p><p style="margin-bottom: 0px">Profile: <a href="https://build.fhir.org/ig/HL7/emedicinal-product-info//StructureDefinition-ManufacturedItemDefinition-uv-epi.html">ManufacturedItemDefinition (ePI)</a></p></div><p><b>identifier</b>: id: placeholder (use: OFFICIAL)</p><p><b>status</b>: active</p><p><b>manufacturedDoseForm</b>: Capsule, hard <span style="background: LightGoldenRodYellow; margin: 4px; border: 1px solid khaki"> (#100000073375)</span></p><p><b>unitOfPresentation</b>: Capsule <span style="background: LightGoldenRodYellow; margin: 4px; border: 1px solid khaki"> (rmswi#200000002113)</span></p><p><b>manufacturer</b>: <a href="#Organization_orgexcellagmbh">See above (Organization/orgexcellagmbh)</a></p></div>
        </text>
        <identifier>
          <use value="official"/>
          <system value="https://www.mhra.gov.uk/"/>
          <value value="placeholder"/>
        </identifier>
        <status value="active"/>
        <manufacturedDoseForm>
          <coding>
            <system value="https://spor.ema.europa.eu/rmswi/"/>
            <code value="100000073375"/>
            <display value="Capsule, hard"/>
          </coding>
        </manufacturedDoseForm>
        <unitOfPresentation>
          <coding>
            <system value="https://spor.ema.europa.eu/rmswi"/>
            <code value="200000002113"/>
            <display value="Capsule"/>
          </coding>
        </unitOfPresentation>
        <manufacturer>
          <reference value="Organization/orgexcellagmbh"/>
        </manufacturer>
      </ManufacturedItemDefinition>
    </resource>
  </entry>
  <entry>
    <fullUrl value="http://hl7.eu/fhir/ig/gravitate-health/ManufacturedItemDefinition/mid1mg"/>
    <resource>
      <ManufacturedItemDefinition>
        <id value="mid1mg"/>
        <meta>
          <profile value="http://hl7.org/fhir/uv/emedicinal-product-info/StructureDefinition/ManufacturedItemDefinition-uv-epi"/>
        </meta>
        <text>
          <status value="generated"/><div xmlns="http://www.w3.org/1999/xhtml"><p><b>Generated Narrative: ManufacturedItemDefinition</b><a name="mid1mg"> </a></p><div style="display: inline-block; background-color: #d9e0e7; padding: 6px; margin: 4px; border: 1px solid #8da1b4; border-radius: 5px; line-height: 60%"><p style="margin-bottom: 0px">Resource ManufacturedItemDefinition &quot;mid1mg&quot; </p><p style="margin-bottom: 0px">Profile: <a href="https://build.fhir.org/ig/HL7/emedicinal-product-info//StructureDefinition-ManufacturedItemDefinition-uv-epi.html">ManufacturedItemDefinition (ePI)</a></p></div><p><b>identifier</b>: id: placeholder (use: OFFICIAL)</p><p><b>status</b>: active</p><p><b>manufacturedDoseForm</b>: Capsule, hard <span style="background: LightGoldenRodYellow; margin: 4px; border: 1px solid khaki"> (#100000073375)</span></p><p><b>unitOfPresentation</b>: Capsule <span style="background: LightGoldenRodYellow; margin: 4px; border: 1px solid khaki"> (rmswi#200000002113)</span></p><p><b>manufacturer</b>: <a href="#Organization_orgexcellagmbh">See above (Organization/orgexcellagmbh)</a></p></div>
        </text>
        <identifier>
          <use value="official"/>
          <system value="https://www.mhra.gov.uk/"/>
          <value value="placeholder"/>
        </identifier>
        <status value="active"/>
        <manufacturedDoseForm>
          <coding>
            <system value="https://spor.ema.europa.eu/rmswi/"/>
            <code value="100000073375"/>
            <display value="Capsule, hard"/>
          </coding>
        </manufacturedDoseForm>
        <unitOfPresentation>
          <coding>
            <system value="https://spor.ema.europa.eu/rmswi"/>
            <code value="200000002113"/>
            <display value="Capsule"/>
          </coding>
        </unitOfPresentation>
        <manufacturer>
          <reference value="Organization/orgexcellagmbh"/>
        </manufacturer>
      </ManufacturedItemDefinition>
    </resource>
  </entry>
  <entry>
    <fullUrl value="http://hl7.eu/fhir/ig/gravitate-health/AdministrableProductDefinition/ap025mg"/>
    <resource>
      <AdministrableProductDefinition>
        <id value="ap025mg"/>
        <meta>
          <profile value="http://hl7.org/fhir/uv/emedicinal-product-info/StructureDefinition/AdministrableProductDefinition-uv-epi"/>
        </meta>
        <text>
          <status value="generated"/><div xmlns="http://www.w3.org/1999/xhtml"><p><b>Generated Narrative: AdministrableProductDefinition</b><a name="ap025mg"> </a></p><div style="display: inline-block; background-color: #d9e0e7; padding: 6px; margin: 4px; border: 1px solid #8da1b4; border-radius: 5px; line-height: 60%"><p style="margin-bottom: 0px">Resource AdministrableProductDefinition &quot;ap025mg&quot; </p><p style="margin-bottom: 0px">Profile: <a href="https://build.fhir.org/ig/HL7/emedicinal-product-info//StructureDefinition-AdministrableProductDefinition-uv-epi.html">AdministrableProductDefinition (ePI)</a></p></div><p><b>identifier</b>: id: identifier</p><p><b>status</b>: active</p><p><b>formOf</b>: <a href="#MedicinalProductDefinition_mp025mg">See above (MedicinalProductDefinition/mp025mg)</a></p><p><b>administrableDoseForm</b>: Capsule, hard <span style="background: LightGoldenRodYellow; margin: 4px; border: 1px solid khaki"> (rmswi#100000073375)</span></p><p><b>unitOfPresentation</b>: Capsule <span style="background: LightGoldenRodYellow; margin: 4px; border: 1px solid khaki"> (rmswi#200000002113)</span></p><p><b>producedFrom</b>: <a href="#ManufacturedItemDefinition_mid025mg">See above (ManufacturedItemDefinition/mid025mg)</a></p><blockquote><p><b>routeOfAdministration</b></p><p><b>code</b>: Oral use <span style="background: LightGoldenRodYellow; margin: 4px; border: 1px solid khaki"> (rmswi#100000073619)</span></p><h3>TargetSpecies</h3><table class="grid"><tr><td style="display: none">-</td><td><b>Code</b></td></tr><tr><td style="display: none">*</td><td>Human <span style="background: LightGoldenRodYellow; margin: 4px; border: 1px solid khaki"> (rmswi#100000109093)</span></td></tr></table></blockquote></div>
        </text>
        <identifier>
          <system value="https://www.who-umc.org/phpid"/>
          <value value="identifier"/>
        </identifier>
        <status value="active"/>
        <formOf>
          <reference value="MedicinalProductDefinition/mp025mg"/>
        </formOf>
        <administrableDoseForm>
          <coding>
            <system value="https://spor.ema.europa.eu/rmswi"/>
            <code value="100000073375"/>
            <display value="Capsule, hard"/>
          </coding>
        </administrableDoseForm>
        <unitOfPresentation>
          <coding>
            <system value="https://spor.ema.europa.eu/rmswi"/>
            <code value="200000002113"/>
            <display value="Capsule"/>
          </coding>
        </unitOfPresentation>
        <producedFrom>
          <reference value="ManufacturedItemDefinition/mid025mg"/>
        </producedFrom>
        <routeOfAdministration>
          <code>
            <coding>
              <system value="https://spor.ema.europa.eu/rmswi"/>
              <code value="100000073619"/>
              <display value="Oral use"/>
            </coding>
          </code>
          <targetSpecies>
            <code>
              <coding>
                <system value="https://spor.ema.europa.eu/rmswi"/>
                <code value="100000109093"/>
                <display value="Human"/>
              </coding>
            </code>
          </targetSpecies>
        </routeOfAdministration>
      </AdministrableProductDefinition>
    </resource>
  </entry>
  <entry>
    <fullUrl value="http://hl7.eu/fhir/ig/gravitate-health/AdministrableProductDefinition/ap1mg"/>
    <resource>
      <AdministrableProductDefinition>
        <id value="ap1mg"/>
        <meta>
          <profile value="http://hl7.org/fhir/uv/emedicinal-product-info/StructureDefinition/AdministrableProductDefinition-uv-epi"/>
        </meta>
        <text>
          <status value="generated"/><div xmlns="http://www.w3.org/1999/xhtml"><p><b>Generated Narrative: AdministrableProductDefinition</b><a name="ap1mg"> </a></p><div style="display: inline-block; background-color: #d9e0e7; padding: 6px; margin: 4px; border: 1px solid #8da1b4; border-radius: 5px; line-height: 60%"><p style="margin-bottom: 0px">Resource AdministrableProductDefinition &quot;ap1mg&quot; </p><p style="margin-bottom: 0px">Profile: <a href="https://build.fhir.org/ig/HL7/emedicinal-product-info//StructureDefinition-AdministrableProductDefinition-uv-epi.html">AdministrableProductDefinition (ePI)</a></p></div><p><b>identifier</b>: id: identifier</p><p><b>status</b>: active</p><p><b>formOf</b>: <a href="#MedicinalProductDefinition_mp1mg">See above (MedicinalProductDefinition/mp1mg)</a></p><p><b>administrableDoseForm</b>: Capsule, hard <span style="background: LightGoldenRodYellow; margin: 4px; border: 1px solid khaki"> (rmswi#100000073375)</span></p><p><b>unitOfPresentation</b>: Capsule <span style="background: LightGoldenRodYellow; margin: 4px; border: 1px solid khaki"> (rmswi#200000002113)</span></p><p><b>producedFrom</b>: <a href="#ManufacturedItemDefinition_mid1mg">See above (ManufacturedItemDefinition/mid1mg)</a></p><blockquote><p><b>routeOfAdministration</b></p><p><b>code</b>: Oral use <span style="background: LightGoldenRodYellow; margin: 4px; border: 1px solid khaki"> (rmswi#100000073619)</span></p><h3>TargetSpecies</h3><table class="grid"><tr><td style="display: none">-</td><td><b>Code</b></td></tr><tr><td style="display: none">*</td><td>Human <span style="background: LightGoldenRodYellow; margin: 4px; border: 1px solid khaki"> (rmswi#100000109093)</span></td></tr></table></blockquote></div>
        </text>
        <identifier>
          <system value="https://www.who-umc.org/phpid"/>
          <value value="identifier"/>
        </identifier>
        <status value="active"/>
        <formOf>
          <reference value="MedicinalProductDefinition/mp1mg"/>
        </formOf>
        <administrableDoseForm>
          <coding>
            <system value="https://spor.ema.europa.eu/rmswi"/>
            <code value="100000073375"/>
            <display value="Capsule, hard"/>
          </coding>
        </administrableDoseForm>
        <unitOfPresentation>
          <coding>
            <system value="https://spor.ema.europa.eu/rmswi"/>
            <code value="200000002113"/>
            <display value="Capsule"/>
          </coding>
        </unitOfPresentation>
        <producedFrom>
          <reference value="ManufacturedItemDefinition/mid1mg"/>
        </producedFrom>
        <routeOfAdministration>
          <code>
            <coding>
              <system value="https://spor.ema.europa.eu/rmswi"/>
              <code value="100000073619"/>
              <display value="Oral use"/>
            </coding>
          </code>
          <targetSpecies>
            <code>
              <coding>
                <system value="https://spor.ema.europa.eu/rmswi"/>
                <code value="100000109093"/>
                <display value="Human"/>
              </coding>
            </code>
          </targetSpecies>
        </routeOfAdministration>
      </AdministrableProductDefinition>
    </resource>
  </entry>
  <entry>
    <fullUrl value="http://hl7.eu/fhir/ig/gravitate-health/RegulatedAuthorization/authorization1mg"/>
    <resource>
      <RegulatedAuthorization>
        <id value="authorization1mg"/>
        <meta>
          <profile value="http://hl7.org/fhir/uv/emedicinal-product-info/StructureDefinition/RegulatedAuthorization-uv-epi"/>
        </meta>
        <text>
          <status value="generated"/><div xmlns="http://www.w3.org/1999/xhtml"><p><b>Generated Narrative: RegulatedAuthorization</b><a name="authorization1mg"> </a></p><div style="display: inline-block; background-color: #d9e0e7; padding: 6px; margin: 4px; border: 1px solid #8da1b4; border-radius: 5px; line-height: 60%"><p style="margin-bottom: 0px">Resource RegulatedAuthorization &quot;authorization1mg&quot; </p><p style="margin-bottom: 0px">Profile: <a href="https://build.fhir.org/ig/HL7/emedicinal-product-info//StructureDefinition-RegulatedAuthorization-uv-epi.html">RegulatedAuthorization (ePI)</a></p></div><p><b>identifier</b>: id: placeholder (use: OFFICIAL)</p><p><b>subject</b>: <a href="#MedicinalProductDefinition_mp025mg">See above (MedicinalProductDefinition/mp025mg)</a></p><p><b>type</b>: Marketing Authorisation <span style="background: LightGoldenRodYellow; margin: 4px; border: 1px solid khaki"> (rmswi#220000000061)</span></p><p><b>region</b>: United Kingdom <span style="background: LightGoldenRodYellow; margin: 4px; border: 1px solid khaki"> (<a href="http://terminology.hl7.org/5.3.0/CodeSystem-ISO3166Part1.html">ISO 3166-1 Codes for the representation of names of countries and their subdivisions — Part 1: Country code</a>#GBR)</span></p><p><b>status</b>: Active <span style="background: LightGoldenRodYellow; margin: 4px; border: 1px solid khaki"> (<a href="http://hl7.org/fhir/R5/codesystem-publication-status.html">PublicationStatus</a>#active)</span></p><p><b>statusDate</b>: 2022-03-04 00:00:00+0000</p><p><b>holder</b>: <a href="#Organization_orgpfizerukltd">See above (Organization/orgpfizerukltd)</a></p></div>
        </text>
        <identifier>
          <use value="official"/>
          <system value="https://spor.ema.europa.eu/pmswi"/>
          <value value="placeholder"/>
        </identifier>
        <subject>
          <reference value="MedicinalProductDefinition/mp025mg"/>
        </subject>
        <type>
          <coding>
            <system value="https://spor.ema.europa.eu/rmswi"/>
            <code value="220000000061"/>
            <display value="Marketing Authorisation"/>
          </coding>
        </type>
        <region>
          <coding>
            <system value="urn:iso:std:iso:3166"/>
            <code value="GBR"/>
            <display value="United Kingdom"/>
          </coding>
        </region>
        <status>
          <coding>
            <system value="http://hl7.org/fhir/publication-status"/>
            <code value="active"/>
            <display value="Active"/>
          </coding>
        </status>
        <statusDate value="2022-03-04T00:00:00Z"/>
        <holder>
          <reference value="Organization/orgpfizerukltd"/>
        </holder>
      </RegulatedAuthorization>
    </resource>
  </entry>
  <entry>
    <fullUrl value="http://hl7.eu/fhir/ig/gravitate-health/RegulatedAuthorization/authorization025mg"/>
    <resource>
      <RegulatedAuthorization>
        <id value="authorization025mg"/>
        <meta>
          <profile value="http://hl7.org/fhir/uv/emedicinal-product-info/StructureDefinition/RegulatedAuthorization-uv-epi"/>
        </meta>
        <text>
          <status value="generated"/><div xmlns="http://www.w3.org/1999/xhtml"><p><b>Generated Narrative: RegulatedAuthorization</b><a name="authorization025mg"> </a></p><div style="display: inline-block; background-color: #d9e0e7; padding: 6px; margin: 4px; border: 1px solid #8da1b4; border-radius: 5px; line-height: 60%"><p style="margin-bottom: 0px">Resource RegulatedAuthorization &quot;authorization025mg&quot; </p><p style="margin-bottom: 0px">Profile: <a href="https://build.fhir.org/ig/HL7/emedicinal-product-info//StructureDefinition-RegulatedAuthorization-uv-epi.html">RegulatedAuthorization (ePI)</a></p></div><p><b>identifier</b>: id: placeholder (use: OFFICIAL)</p><p><b>subject</b>: <a href="#MedicinalProductDefinition_mp025mg">See above (MedicinalProductDefinition/mp025mg)</a></p><p><b>type</b>: Marketing Authorisation <span style="background: LightGoldenRodYellow; margin: 4px; border: 1px solid khaki"> (rmswi#220000000061)</span></p><p><b>region</b>: United Kingdom <span style="background: LightGoldenRodYellow; margin: 4px; border: 1px solid khaki"> (<a href="http://terminology.hl7.org/5.3.0/CodeSystem-ISO3166Part1.html">ISO 3166-1 Codes for the representation of names of countries and their subdivisions — Part 1: Country code</a>#GBR)</span></p><p><b>status</b>: Active <span style="background: LightGoldenRodYellow; margin: 4px; border: 1px solid khaki"> (<a href="http://hl7.org/fhir/R5/codesystem-publication-status.html">PublicationStatus</a>#active)</span></p><p><b>statusDate</b>: 2022-03-04 00:00:00+0000</p><p><b>holder</b>: <a href="#Organization_orgpfizerukltd">See above (Organization/orgpfizerukltd)</a></p></div>
        </text>
        <identifier>
          <use value="official"/>
          <system value="https://spor.ema.europa.eu/pmswi"/>
          <value value="placeholder"/>
        </identifier>
        <subject>
          <reference value="MedicinalProductDefinition/mp025mg"/>
        </subject>
        <type>
          <coding>
            <system value="https://spor.ema.europa.eu/rmswi"/>
            <code value="220000000061"/>
            <display value="Marketing Authorisation"/>
          </coding>
        </type>
        <region>
          <coding>
            <system value="urn:iso:std:iso:3166"/>
            <code value="GBR"/>
            <display value="United Kingdom"/>
          </coding>
        </region>
        <status>
          <coding>
            <system value="http://hl7.org/fhir/publication-status"/>
            <code value="active"/>
            <display value="Active"/>
          </coding>
        </status>
        <statusDate value="2022-03-04T00:00:00Z"/>
        <holder>
          <reference value="Organization/orgpfizerukltd"/>
        </holder>
      </RegulatedAuthorization>
    </resource>
  </entry>
  <entry>
    <fullUrl value="http://hl7.eu/fhir/ig/gravitate-health/Organization/orgpfizerukltd"/>
    <resource>
      <Organization>
        <id value="orgpfizerukltd"/>
        <meta>
          <profile value="http://hl7.org/fhir/uv/emedicinal-product-info/StructureDefinition/Organization-uv-epi"/>
        </meta>
        <text>
          <status value="generated"/><div xmlns="http://www.w3.org/1999/xhtml"><p><b>Generated Narrative: Organization</b><a name="orgpfizerukltd"> </a></p><div style="display: inline-block; background-color: #d9e0e7; padding: 6px; margin: 4px; border: 1px solid #8da1b4; border-radius: 5px; line-height: 60%"><p style="margin-bottom: 0px">Resource Organization &quot;orgpfizerukltd&quot; </p><p style="margin-bottom: 0px">Profile: <a href="https://build.fhir.org/ig/HL7/emedicinal-product-info//StructureDefinition-Organization-uv-epi.html">Organization (ePI)</a></p></div><p><b>identifier</b>: id: ORG-100000789 (use: OFFICIAL)</p><p><b>active</b>: true</p><p><b>type</b>: Marketing authorisation holder <span style="background: LightGoldenRodYellow; margin: 4px; border: 1px solid khaki"> (rmswi#220000000034)</span></p><p><b>name</b>: Pfizer Limited</p><h3>Contacts</h3><table class="grid"><tr><td style="display: none">-</td><td><b>Address</b></td></tr><tr><td style="display: none">*</td><td>Pfizer Limited Ramsgate Road, Sandwich, Kent, CT13 9NJ, United Kingdom(WORK)</td></tr></table></div>
        </text>
        <identifier>
          <use value="official"/>
          <system value="https://spor.ema.europa.eu/omswi"/>
          <value value="ORG-100000789"/>
        </identifier>
        <active value="true"/>
        <type>
          <coding>
            <system value="https://spor.ema.europa.eu/rmswi"/>
            <code value="220000000034"/>
            <display value="Marketing authorisation holder"/>
          </coding>
          <text value="Marketing authorisation holder"/>
        </type>
        <name value="Pfizer Limited"/>
        <contact>
          <address>
            <use value="work"/>
            <type value="physical"/>
            <text value="Pfizer Limited Ramsgate Road, Sandwich, Kent, CT13 9NJ, United Kingdom"/>
            <line value="Ramsgate Road"/>
            <city value="Sandwich"/>
            <country value="UK"/>
          </address>
        </contact>
      </Organization>
    </resource>
  </entry>
  <entry>
    <fullUrl value="http://hl7.eu/fhir/ig/gravitate-health/Organization/orgexcellagmbh"/>
    <resource>
      <Organization>
        <id value="orgexcellagmbh"/>
        <meta>
          <profile value="http://hl7.org/fhir/uv/emedicinal-product-info/StructureDefinition/Organization-uv-epi"/>
        </meta>
        <text>
          <status value="generated"/><div xmlns="http://www.w3.org/1999/xhtml"><p><b>Generated Narrative: Organization</b><a name="orgexcellagmbh"> </a></p><div style="display: inline-block; background-color: #d9e0e7; padding: 6px; margin: 4px; border: 1px solid #8da1b4; border-radius: 5px; line-height: 60%"><p style="margin-bottom: 0px">Resource Organization &quot;orgexcellagmbh&quot; </p><p style="margin-bottom: 0px">Profile: <a href="https://build.fhir.org/ig/HL7/emedicinal-product-info//StructureDefinition-Organization-uv-epi.html">Organization (ePI)</a></p></div><p><b>identifier</b>: id: ORG-100012030 (use: OFFICIAL)</p><p><b>active</b>: true</p><p><b>type</b>: Manufacturer <span style="background: LightGoldenRodYellow; margin: 4px; border: 1px solid khaki"> (rmswi#220000000033)</span></p><p><b>name</b>: Excella GmbH &amp; Co. KG</p><h3>Contacts</h3><table class="grid"><tr><td style="display: none">-</td><td><b>Address</b></td></tr><tr><td style="display: none">*</td><td>Excella GmbH &amp; Co. KG, Nürnberger Strasse 12, 90537 Feucht, Germany(WORK)</td></tr></table></div>
        </text>
        <identifier>
          <use value="official"/>
          <system value="https://spor.ema.europa.eu/omswi"/>
          <value value="ORG-100012030"/>
        </identifier>
        <active value="true"/>
        <type>
          <coding>
            <system value="https://spor.ema.europa.eu/rmswi"/>
            <code value="220000000033"/>
            <display value="Manufacturer"/>
          </coding>
          <text value="Manufacturer"/>
        </type>
        <name value="Excella GmbH &amp; Co. KG"/>
        <contact>
          <address>
            <use value="work"/>
            <type value="physical"/>
            <text value="Excella GmbH &amp; Co. KG, Nürnberger Strasse 12, 90537 Feucht, Germany"/>
            <line value="Nürnberger Strasse 12"/>
            <city value="Feucht"/>
            <country value="DE"/>
          </address>
        </contact>
      </Organization>
    </resource>
  </entry>
  <entry>
    <fullUrl value="http://hl7.eu/fhir/ig/gravitate-health/PackagedProductDefinition/talzenna025mgblister30"/>
    <resource>
      <PackagedProductDefinition>
        <id value="talzenna025mgblister30"/>
        <meta>
          <profile value="http://hl7.org/fhir/uv/emedicinal-product-info/StructureDefinition/PackagedProductDefinition-uv-epi"/>
        </meta>
        <text>
          <status value="generated"/><div xmlns="http://www.w3.org/1999/xhtml"><p><b>Generated Narrative: PackagedProductDefinition</b><a name="talzenna025mgblister30"> </a></p><div style="display: inline-block; background-color: #d9e0e7; padding: 6px; margin: 4px; border: 1px solid #8da1b4; border-radius: 5px; line-height: 60%"><p style="margin-bottom: 0px">Resource PackagedProductDefinition &quot;talzenna025mgblister30&quot; </p><p style="margin-bottom: 0px">Profile: <a href="https://build.fhir.org/ig/HL7/emedicinal-product-info//StructureDefinition-PackagedProductDefinition-uv-epi.html">PackagedProductDefinition (ePI)</a></p></div><p><b>identifier</b>: id: placeholder (use: OFFICIAL)</p><p><b>name</b>: Talzenna 0.25 mg perforated unit dose blister pack - 30 capsules</p><p><b>type</b>: Chemical Medicinal Product <span style="background: LightGoldenRodYellow; margin: 4px; border: 1px solid khaki"> (rmswi#100000155527)</span></p><p><b>packageFor</b>: <a href="#MedicinalProductDefinition_mp025mg">See above (MedicinalProductDefinition/mp025mg)</a></p><p><b>status</b>: Active <span style="background: LightGoldenRodYellow; margin: 4px; border: 1px solid khaki"> (<a href="http://hl7.org/fhir/R5/codesystem-publication-status.html">PublicationStatus</a>#active)</span></p><p><b>statusDate</b>: 2022-03-04 00:00:00+0000</p><p><b>containedItemQuantity</b>: 0.25 mg<span style="background: LightGoldenRodYellow"> (Details: UCUM code mg = 'mg')</span></p><p><b>manufacturer</b>: <a href="#Organization_orgpfizerukltd">See above (Organization/orgpfizerukltd)</a></p><h3>Packagings</h3><table class="grid"><tr><td style="display: none">-</td><td><b>Identifier</b></td><td><b>Type</b></td><td><b>Quantity</b></td><td><b>Material</b></td></tr><tr><td style="display: none">*</td><td>id: 002</td><td>Blister <span style="background: LightGoldenRodYellow; margin: 4px; border: 1px solid khaki"> (rmswi#100000073496)</span></td><td>30</td><td>PolyVinyl Chloride <span style="background: LightGoldenRodYellow; margin: 4px; border: 1px solid khaki"> (rmswi#200000003222)</span></td></tr></table></div>
        </text>
        <identifier>
          <use value="official"/>
          <system value="https://spor.ema.europa.eu/pmswi"/>
          <value value="placeholder"/>
        </identifier>
        <name value="Talzenna 0.25 mg perforated unit dose blister pack - 30 capsules"/>
        <type>
          <coding>
            <system value="https://spor.ema.europa.eu/rmswi"/>
            <code value="100000155527"/>
            <display value="Chemical Medicinal Product"/>
          </coding>
        </type>
        <packageFor>
          <reference value="MedicinalProductDefinition/mp025mg"/>
        </packageFor>
        <status>
          <coding>
            <system value="http://hl7.org/fhir/publication-status"/>
            <code value="active"/>
            <display value="Active"/>
          </coding>
        </status>
        <statusDate value="2022-03-04T00:00:00Z"/>
        <containedItemQuantity>
          <value value="0.25"/>
          <system value="http://unitsofmeasure.org"/>
          <code value="mg"/>
        </containedItemQuantity>
        <manufacturer>
          <reference value="Organization/orgpfizerukltd"/>
        </manufacturer>
        <packaging>
          <identifier>
            <system value="https://spor.ema.europa.eu/pmswi"/>
            <value value="002"/>
          </identifier>
          <type>
            <coding>
              <system value="https://spor.ema.europa.eu/rmswi"/>
              <code value="100000073496"/>
              <display value="Blister"/>
            </coding>
          </type>
          <quantity value="30"/>
          <material>
            <coding>
              <system value="https://spor.ema.europa.eu/rmswi"/>
              <code value="200000003222"/>
              <display value="PolyVinyl Chloride"/>
            </coding>
          </material>
        </packaging>
      </PackagedProductDefinition>
    </resource>
  </entry>
  <entry>
    <fullUrl value="http://hl7.eu/fhir/ig/gravitate-health/PackagedProductDefinition/talzenna025mgblister60"/>
    <resource>
      <PackagedProductDefinition>
        <id value="talzenna025mgblister60"/>
        <meta>
          <profile value="http://hl7.org/fhir/uv/emedicinal-product-info/StructureDefinition/PackagedProductDefinition-uv-epi"/>
        </meta>
        <text>
          <status value="generated"/><div xmlns="http://www.w3.org/1999/xhtml"><p><b>Generated Narrative: PackagedProductDefinition</b><a name="talzenna025mgblister60"> </a></p><div style="display: inline-block; background-color: #d9e0e7; padding: 6px; margin: 4px; border: 1px solid #8da1b4; border-radius: 5px; line-height: 60%"><p style="margin-bottom: 0px">Resource PackagedProductDefinition &quot;talzenna025mgblister60&quot; </p><p style="margin-bottom: 0px">Profile: <a href="https://build.fhir.org/ig/HL7/emedicinal-product-info//StructureDefinition-PackagedProductDefinition-uv-epi.html">PackagedProductDefinition (ePI)</a></p></div><p><b>identifier</b>: id: placeholder (use: OFFICIAL)</p><p><b>name</b>: Talzenna 0.25 mg perforated unit dose blister pack - 60 capsules</p><p><b>type</b>: Chemical Medicinal Product <span style="background: LightGoldenRodYellow; margin: 4px; border: 1px solid khaki"> (rmswi#100000155527)</span></p><p><b>packageFor</b>: <a href="#MedicinalProductDefinition_mp025mg">See above (MedicinalProductDefinition/mp025mg)</a></p><p><b>status</b>: Active <span style="background: LightGoldenRodYellow; margin: 4px; border: 1px solid khaki"> (<a href="http://hl7.org/fhir/R5/codesystem-publication-status.html">PublicationStatus</a>#active)</span></p><p><b>statusDate</b>: 2022-03-04 00:00:00+0000</p><p><b>containedItemQuantity</b>: 0.25 mg<span style="background: LightGoldenRodYellow"> (Details: UCUM code mg = 'mg')</span></p><p><b>manufacturer</b>: <a href="#Organization_orgpfizerukltd">See above (Organization/orgpfizerukltd)</a></p><h3>Packagings</h3><table class="grid"><tr><td style="display: none">-</td><td><b>Identifier</b></td><td><b>Type</b></td><td><b>Quantity</b></td><td><b>Material</b></td></tr><tr><td style="display: none">*</td><td>id: 003</td><td>Blister <span style="background: LightGoldenRodYellow; margin: 4px; border: 1px solid khaki"> (rmswi#100000073496)</span></td><td>60</td><td>PolyVinyl Chloride <span style="background: LightGoldenRodYellow; margin: 4px; border: 1px solid khaki"> (rmswi#200000003222)</span></td></tr></table></div>
        </text>
        <identifier>
          <use value="official"/>
          <system value="https://spor.ema.europa.eu/pmswi"/>
          <value value="placeholder"/>
        </identifier>
        <name value="Talzenna 0.25 mg perforated unit dose blister pack - 60 capsules"/>
        <type>
          <coding>
            <system value="https://spor.ema.europa.eu/rmswi"/>
            <code value="100000155527"/>
            <display value="Chemical Medicinal Product"/>
          </coding>
        </type>
        <packageFor>
          <reference value="MedicinalProductDefinition/mp025mg"/>
        </packageFor>
        <status>
          <coding>
            <system value="http://hl7.org/fhir/publication-status"/>
            <code value="active"/>
            <display value="Active"/>
          </coding>
        </status>
        <statusDate value="2022-03-04T00:00:00Z"/>
        <containedItemQuantity>
          <value value="0.25"/>
          <system value="http://unitsofmeasure.org"/>
          <code value="mg"/>
        </containedItemQuantity>
        <manufacturer>
          <reference value="Organization/orgpfizerukltd"/>
        </manufacturer>
        <packaging>
          <identifier>
            <system value="https://spor.ema.europa.eu/pmswi"/>
            <value value="003"/>
          </identifier>
          <type>
            <coding>
              <system value="https://spor.ema.europa.eu/rmswi"/>
              <code value="100000073496"/>
              <display value="Blister"/>
            </coding>
          </type>
          <quantity value="60"/>
          <material>
            <coding>
              <system value="https://spor.ema.europa.eu/rmswi"/>
              <code value="200000003222"/>
              <display value="PolyVinyl Chloride"/>
            </coding>
          </material>
        </packaging>
      </PackagedProductDefinition>
    </resource>
  </entry>
  <entry>
    <fullUrl value="http://hl7.eu/fhir/ig/gravitate-health/PackagedProductDefinition/talzenna025mgblister90"/>
    <resource>
      <PackagedProductDefinition>
        <id value="talzenna025mgblister90"/>
        <meta>
          <profile value="http://hl7.org/fhir/uv/emedicinal-product-info/StructureDefinition/PackagedProductDefinition-uv-epi"/>
        </meta>
        <text>
          <status value="generated"/><div xmlns="http://www.w3.org/1999/xhtml"><p><b>Generated Narrative: PackagedProductDefinition</b><a name="talzenna025mgblister90"> </a></p><div style="display: inline-block; background-color: #d9e0e7; padding: 6px; margin: 4px; border: 1px solid #8da1b4; border-radius: 5px; line-height: 60%"><p style="margin-bottom: 0px">Resource PackagedProductDefinition &quot;talzenna025mgblister90&quot; </p><p style="margin-bottom: 0px">Profile: <a href="https://build.fhir.org/ig/HL7/emedicinal-product-info//StructureDefinition-PackagedProductDefinition-uv-epi.html">PackagedProductDefinition (ePI)</a></p></div><p><b>identifier</b>: id: 004 (use: OFFICIAL)</p><p><b>name</b>: Talzenna 0.25 mg perforated unit dose blister pack - 90 capsules</p><p><b>type</b>: Chemical Medicinal Product <span style="background: LightGoldenRodYellow; margin: 4px; border: 1px solid khaki"> (rmswi#100000155527)</span></p><p><b>packageFor</b>: <a href="#MedicinalProductDefinition_mp025mg">See above (MedicinalProductDefinition/mp025mg)</a></p><p><b>status</b>: Active <span style="background: LightGoldenRodYellow; margin: 4px; border: 1px solid khaki"> (<a href="http://hl7.org/fhir/R5/codesystem-publication-status.html">PublicationStatus</a>#active)</span></p><p><b>statusDate</b>: 2022-03-04 00:00:00+0000</p><p><b>containedItemQuantity</b>: 0.25 mg<span style="background: LightGoldenRodYellow"> (Details: UCUM code mg = 'mg')</span></p><p><b>manufacturer</b>: <a href="#Organization_orgpfizerukltd">See above (Organization/orgpfizerukltd)</a></p><h3>Packagings</h3><table class="grid"><tr><td style="display: none">-</td><td><b>Identifier</b></td><td><b>Type</b></td><td><b>Quantity</b></td><td><b>Material</b></td></tr><tr><td style="display: none">*</td><td>id: placeholder</td><td>Blister <span style="background: LightGoldenRodYellow; margin: 4px; border: 1px solid khaki"> (rmswi#100000073496)</span></td><td>90</td><td>PolyVinyl Chloride <span style="background: LightGoldenRodYellow; margin: 4px; border: 1px solid khaki"> (rmswi#200000003222)</span></td></tr></table></div>
        </text>
        <identifier>
          <use value="official"/>
          <system value="https://spor.ema.europa.eu/pmswi"/>
          <value value="004"/>
        </identifier>
        <name value="Talzenna 0.25 mg perforated unit dose blister pack - 90 capsules"/>
        <type>
          <coding>
            <system value="https://spor.ema.europa.eu/rmswi"/>
            <code value="100000155527"/>
            <display value="Chemical Medicinal Product"/>
          </coding>
        </type>
        <packageFor>
          <reference value="MedicinalProductDefinition/mp025mg"/>
        </packageFor>
        <status>
          <coding>
            <system value="http://hl7.org/fhir/publication-status"/>
            <code value="active"/>
            <display value="Active"/>
          </coding>
        </status>
        <statusDate value="2022-03-04T00:00:00Z"/>
        <containedItemQuantity>
          <value value="0.25"/>
          <system value="http://unitsofmeasure.org"/>
          <code value="mg"/>
        </containedItemQuantity>
        <manufacturer>
          <reference value="Organization/orgpfizerukltd"/>
        </manufacturer>
        <packaging>
          <identifier>
            <system value="https://spor.ema.europa.eu/pmswi"/>
            <value value="placeholder"/>
          </identifier>
          <type>
            <coding>
              <system value="https://spor.ema.europa.eu/rmswi"/>
              <code value="100000073496"/>
              <display value="Blister"/>
            </coding>
          </type>
          <quantity value="90"/>
          <material>
            <coding>
              <system value="https://spor.ema.europa.eu/rmswi"/>
              <code value="200000003222"/>
              <display value="PolyVinyl Chloride"/>
            </coding>
          </material>
        </packaging>
      </PackagedProductDefinition>
    </resource>
  </entry>
  <entry>
    <fullUrl value="http://hl7.eu/fhir/ig/gravitate-health/PackagedProductDefinition/talzenna025mgbottle30"/>
    <resource>
      <PackagedProductDefinition>
        <id value="talzenna025mgbottle30"/>
        <meta>
          <profile value="http://hl7.org/fhir/uv/emedicinal-product-info/StructureDefinition/PackagedProductDefinition-uv-epi"/>
        </meta>
        <text>
          <status value="generated"/><div xmlns="http://www.w3.org/1999/xhtml"><p><b>Generated Narrative: PackagedProductDefinition</b><a name="talzenna025mgbottle30"> </a></p><div style="display: inline-block; background-color: #d9e0e7; padding: 6px; margin: 4px; border: 1px solid #8da1b4; border-radius: 5px; line-height: 60%"><p style="margin-bottom: 0px">Resource PackagedProductDefinition &quot;talzenna025mgbottle30&quot; </p><p style="margin-bottom: 0px">Profile: <a href="https://build.fhir.org/ig/HL7/emedicinal-product-info//StructureDefinition-PackagedProductDefinition-uv-epi.html">PackagedProductDefinition (ePI)</a></p></div><p><b>identifier</b>: id: placeholder (use: OFFICIAL)</p><p><b>name</b>: Talzenna 0.25 mg plastic bottle - 30 hard capsules</p><p><b>type</b>: Chemical Medicinal Product <span style="background: LightGoldenRodYellow; margin: 4px; border: 1px solid khaki"> (rmswi#100000155527)</span></p><p><b>packageFor</b>: <a href="#MedicinalProductDefinition_mp025mg">See above (MedicinalProductDefinition/mp025mg)</a></p><p><b>status</b>: Active <span style="background: LightGoldenRodYellow; margin: 4px; border: 1px solid khaki"> (<a href="http://hl7.org/fhir/R5/codesystem-publication-status.html">PublicationStatus</a>#active)</span></p><p><b>statusDate</b>: 2022-03-04 00:00:00+0000</p><p><b>containedItemQuantity</b>: 0.25 mg<span style="background: LightGoldenRodYellow"> (Details: UCUM code mg = 'mg')</span></p><p><b>manufacturer</b>: <a href="#Organization_orgpfizerukltd">See above (Organization/orgpfizerukltd)</a></p><h3>Packagings</h3><table class="grid"><tr><td style="display: none">-</td><td><b>Identifier</b></td><td><b>Type</b></td><td><b>Quantity</b></td><td><b>Material</b></td></tr><tr><td style="display: none">*</td><td>id: 001</td><td>Bottle <span style="background: LightGoldenRodYellow; margin: 4px; border: 1px solid khaki"> (rmswi#100000073497)</span></td><td>30</td><td>High Density PolyEthylene <span style="background: LightGoldenRodYellow; margin: 4px; border: 1px solid khaki"> (rmswi#200000003215)</span></td></tr></table></div>
        </text>
        <identifier>
          <use value="official"/>
          <system value="https://spor.ema.europa.eu/pmswi"/>
          <value value="placeholder"/>
        </identifier>
        <name value="Talzenna 0.25 mg plastic bottle - 30 hard capsules"/>
        <type>
          <coding>
            <system value="https://spor.ema.europa.eu/rmswi"/>
            <code value="100000155527"/>
            <display value="Chemical Medicinal Product"/>
          </coding>
        </type>
        <packageFor>
          <reference value="MedicinalProductDefinition/mp025mg"/>
        </packageFor>
        <status>
          <coding>
            <system value="http://hl7.org/fhir/publication-status"/>
            <code value="active"/>
            <display value="Active"/>
          </coding>
        </status>
        <statusDate value="2022-03-04T00:00:00Z"/>
        <containedItemQuantity>
          <value value="0.25"/>
          <system value="http://unitsofmeasure.org"/>
          <code value="mg"/>
        </containedItemQuantity>
        <manufacturer>
          <reference value="Organization/orgpfizerukltd"/>
        </manufacturer>
        <packaging>
          <identifier>
            <system value="https://spor.ema.europa.eu/pmswi"/>
            <value value="001"/>
          </identifier>
          <type>
            <coding>
              <system value="https://spor.ema.europa.eu/rmswi"/>
              <code value="100000073497"/>
              <display value="Bottle"/>
            </coding>
          </type>
          <quantity value="30"/>
          <material>
            <coding>
              <system value="https://spor.ema.europa.eu/rmswi"/>
              <code value="200000003215"/>
              <display value="High Density PolyEthylene"/>
            </coding>
          </material>
        </packaging>
      </PackagedProductDefinition>
    </resource>
  </entry>
  <entry>
    <fullUrl value="http://hl7.eu/fhir/ig/gravitate-health/PackagedProductDefinition/talzenna1mgblister30"/>
    <resource>
      <PackagedProductDefinition>
        <id value="talzenna1mgblister30"/>
        <meta>
          <profile value="http://hl7.org/fhir/uv/emedicinal-product-info/StructureDefinition/PackagedProductDefinition-uv-epi"/>
        </meta>
        <text>
          <status value="generated"/><div xmlns="http://www.w3.org/1999/xhtml"><p><b>Generated Narrative: PackagedProductDefinition</b><a name="talzenna1mgblister30"> </a></p><div style="display: inline-block; background-color: #d9e0e7; padding: 6px; margin: 4px; border: 1px solid #8da1b4; border-radius: 5px; line-height: 60%"><p style="margin-bottom: 0px">Resource PackagedProductDefinition &quot;talzenna1mgblister30&quot; </p><p style="margin-bottom: 0px">Profile: <a href="https://build.fhir.org/ig/HL7/emedicinal-product-info//StructureDefinition-PackagedProductDefinition-uv-epi.html">PackagedProductDefinition (ePI)</a></p></div><p><b>identifier</b>: id: 006 (use: OFFICIAL)</p><p><b>name</b>: Talzenna 1 mg perforated unit dose blister pack - 30 hard capsules</p><p><b>type</b>: Chemical Medicinal Product <span style="background: LightGoldenRodYellow; margin: 4px; border: 1px solid khaki"> (rmswi#100000155527)</span></p><p><b>packageFor</b>: <a href="#MedicinalProductDefinition_mp1mg">See above (MedicinalProductDefinition/mp1mg)</a></p><p><b>status</b>: Active <span style="background: LightGoldenRodYellow; margin: 4px; border: 1px solid khaki"> (<a href="http://hl7.org/fhir/R5/codesystem-publication-status.html">PublicationStatus</a>#active)</span></p><p><b>statusDate</b>: 2022-03-04 00:00:00+0000</p><p><b>containedItemQuantity</b>: 1 mg<span style="background: LightGoldenRodYellow"> (Details: UCUM code mg = 'mg')</span></p><p><b>manufacturer</b>: <a href="#Organization_orgpfizerukltd">See above (Organization/orgpfizerukltd)</a></p><h3>Packagings</h3><table class="grid"><tr><td style="display: none">-</td><td><b>Identifier</b></td><td><b>Type</b></td><td><b>Quantity</b></td><td><b>Material</b></td></tr><tr><td style="display: none">*</td><td>id: 006</td><td>Blister <span style="background: LightGoldenRodYellow; margin: 4px; border: 1px solid khaki"> (rmswi#100000073496)</span></td><td>30</td><td>PolyVinyl Chloride <span style="background: LightGoldenRodYellow; margin: 4px; border: 1px solid khaki"> (rmswi#200000003222)</span></td></tr></table></div>
        </text>
        <identifier>
          <use value="official"/>
          <system value="https://spor.ema.europa.eu/pmswi"/>
          <value value="006"/>
        </identifier>
        <name value="Talzenna 1 mg perforated unit dose blister pack - 30 hard capsules"/>
        <type>
          <coding>
            <system value="https://spor.ema.europa.eu/rmswi"/>
            <code value="100000155527"/>
            <display value="Chemical Medicinal Product"/>
          </coding>
        </type>
        <packageFor>
          <reference value="MedicinalProductDefinition/mp1mg"/>
        </packageFor>
        <status>
          <coding>
            <system value="http://hl7.org/fhir/publication-status"/>
            <code value="active"/>
            <display value="Active"/>
          </coding>
        </status>
        <statusDate value="2022-03-04T00:00:00Z"/>
        <containedItemQuantity>
          <value value="1"/>
          <system value="http://unitsofmeasure.org"/>
          <code value="mg"/>
        </containedItemQuantity>
        <manufacturer>
          <reference value="Organization/orgpfizerukltd"/>
        </manufacturer>
        <packaging>
          <identifier>
            <system value="https://spor.ema.europa.eu/pmswi"/>
            <value value="006"/>
          </identifier>
          <type>
            <coding>
              <system value="https://spor.ema.europa.eu/rmswi"/>
              <code value="100000073496"/>
              <display value="Blister"/>
            </coding>
          </type>
          <quantity value="30"/>
          <material>
            <coding>
              <system value="https://spor.ema.europa.eu/rmswi"/>
              <code value="200000003222"/>
              <display value="PolyVinyl Chloride"/>
            </coding>
          </material>
        </packaging>
      </PackagedProductDefinition>
    </resource>
  </entry>
  <entry>
    <fullUrl value="http://hl7.eu/fhir/ig/gravitate-health/PackagedProductDefinition/talzenna1mgbottle30"/>
    <resource>
      <PackagedProductDefinition>
        <id value="talzenna1mgbottle30"/>
        <meta>
          <profile value="http://hl7.org/fhir/uv/emedicinal-product-info/StructureDefinition/PackagedProductDefinition-uv-epi"/>
        </meta>
        <text>
          <status value="generated"/><div xmlns="http://www.w3.org/1999/xhtml"><p><b>Generated Narrative: PackagedProductDefinition</b><a name="talzenna1mgbottle30"> </a></p><div style="display: inline-block; background-color: #d9e0e7; padding: 6px; margin: 4px; border: 1px solid #8da1b4; border-radius: 5px; line-height: 60%"><p style="margin-bottom: 0px">Resource PackagedProductDefinition &quot;talzenna1mgbottle30&quot; </p><p style="margin-bottom: 0px">Profile: <a href="https://build.fhir.org/ig/HL7/emedicinal-product-info//StructureDefinition-PackagedProductDefinition-uv-epi.html">PackagedProductDefinition (ePI)</a></p></div><p><b>identifier</b>: id: placeholder (use: OFFICIAL)</p><p><b>name</b>: Talzenna 1 mg plastic bottle - 30 hard capsules</p><p><b>type</b>: Chemical Medicinal Product <span style="background: LightGoldenRodYellow; margin: 4px; border: 1px solid khaki"> (rmswi#100000155527)</span></p><p><b>packageFor</b>: <a href="#MedicinalProductDefinition_mp1mg">See above (MedicinalProductDefinition/mp1mg)</a></p><p><b>status</b>: Active <span style="background: LightGoldenRodYellow; margin: 4px; border: 1px solid khaki"> (<a href="http://hl7.org/fhir/R5/codesystem-publication-status.html">PublicationStatus</a>#active)</span></p><p><b>statusDate</b>: 2022-03-04 00:00:00+0000</p><p><b>containedItemQuantity</b>: 1 mg<span style="background: LightGoldenRodYellow"> (Details: UCUM code mg = 'mg')</span></p><p><b>manufacturer</b>: <a href="#Organization_orgpfizerukltd">See above (Organization/orgpfizerukltd)</a></p><h3>Packagings</h3><table class="grid"><tr><td style="display: none">-</td><td><b>Identifier</b></td><td><b>Type</b></td><td><b>Quantity</b></td><td><b>Material</b></td></tr><tr><td style="display: none">*</td><td>id: 005</td><td>Bottle <span style="background: LightGoldenRodYellow; margin: 4px; border: 1px solid khaki"> (rmswi#100000073497)</span></td><td>30</td><td>High Density PolyEthylene <span style="background: LightGoldenRodYellow; margin: 4px; border: 1px solid khaki"> (rmswi#200000003215)</span></td></tr></table></div>
        </text>
        <identifier>
          <use value="official"/>
          <system value="https://spor.ema.europa.eu/pmswi"/>
          <value value="placeholder"/>
        </identifier>
        <name value="Talzenna 1 mg plastic bottle - 30 hard capsules"/>
        <type>
          <coding>
            <system value="https://spor.ema.europa.eu/rmswi"/>
            <code value="100000155527"/>
            <display value="Chemical Medicinal Product"/>
          </coding>
        </type>
        <packageFor>
          <reference value="MedicinalProductDefinition/mp1mg"/>
        </packageFor>
        <status>
          <coding>
            <system value="http://hl7.org/fhir/publication-status"/>
            <code value="active"/>
            <display value="Active"/>
          </coding>
        </status>
        <statusDate value="2022-03-04T00:00:00Z"/>
        <containedItemQuantity>
          <value value="1"/>
          <system value="http://unitsofmeasure.org"/>
          <code value="mg"/>
        </containedItemQuantity>
        <manufacturer>
          <reference value="Organization/orgpfizerukltd"/>
        </manufacturer>
        <packaging>
          <identifier>
            <system value="https://spor.ema.europa.eu/pmswi"/>
            <value value="005"/>
          </identifier>
          <type>
            <coding>
              <system value="https://spor.ema.europa.eu/rmswi"/>
              <code value="100000073497"/>
              <display value="Bottle"/>
            </coding>
          </type>
          <quantity value="30"/>
          <material>
            <coding>
              <system value="https://spor.ema.europa.eu/rmswi"/>
              <code value="200000003215"/>
              <display value="High Density PolyEthylene"/>
            </coding>
          </material>
        </packaging>
      </PackagedProductDefinition>
    </resource>
  </entry>
  <entry>
    <fullUrl value="http://hl7.eu/fhir/ig/gravitate-health/MedicinalProductDefinition/mp025mg"/>
    <resource>
      <MedicinalProductDefinition>
        <id value="mp025mg"/>
        <meta>
          <profile value="http://hl7.org/fhir/uv/emedicinal-product-info/StructureDefinition/MedicinalProductDefinition-uv-epi"/>
        </meta>
        <text>
          <status value="generated"/><div xmlns="http://www.w3.org/1999/xhtml"><p><b>Generated Narrative: MedicinalProductDefinition</b><a name="mp025mg"> </a></p><div style="display: inline-block; background-color: #d9e0e7; padding: 6px; margin: 4px; border: 1px solid #8da1b4; border-radius: 5px; line-height: 60%"><p style="margin-bottom: 0px">Resource MedicinalProductDefinition &quot;mp025mg&quot; </p><p style="margin-bottom: 0px">Profile: <a href="https://build.fhir.org/ig/HL7/emedicinal-product-info//StructureDefinition-MedicinalProductDefinition-uv-epi.html">MedicinalProductDefinition (ePI)</a></p></div><p><b>identifier</b>: id: 471bb15-7f52-4fcd-b615-8674ce6eb91e</p><p><b>type</b>: Medicinal Product <span style="background: LightGoldenRodYellow; margin: 4px; border: 1px solid khaki"> (<a href="http://hl7.org/fhir/R5/codesystem-medicinal-product-type.html">Medicinal Product Type</a>#MedicinalProduct)</span></p><p><b>domain</b>: Human use <span style="background: LightGoldenRodYellow; margin: 4px; border: 1px solid khaki"> (<a href="http://hl7.org/fhir/R5/codesystem-medicinal-product-domain.html">Medicinal Product Domain</a>#Human)</span></p><p><b>status</b>: active <span style="background: LightGoldenRodYellow; margin: 4px; border: 1px solid khaki"> (<a href="http://hl7.org/fhir/R5/codesystem-publication-status.html">PublicationStatus</a>#active)</span></p><p><b>legalStatusOfSupply</b>: Medicinal product subject to medical prescription <span style="background: LightGoldenRodYellow; margin: 4px; border: 1px solid khaki"> (rmswi#100000072084)</span></p><blockquote><p><b>name</b></p><p><b>productName</b>: Talzenna® (talazoparib) 0.25 mg hard capsules</p><p><b>type</b>: Full name <span style="background: LightGoldenRodYellow; margin: 4px; border: 1px solid khaki"> (220000000000#220000000001)</span></p><blockquote><p><b>part</b></p><p><b>part</b>: Talzenna</p><p><b>type</b>: Invented name part <span style="background: LightGoldenRodYellow; margin: 4px; border: 1px solid khaki"> (220000000000#220000000002)</span></p></blockquote><blockquote><p><b>part</b></p><p><b>part</b>: talazoparib</p><p><b>type</b>: Scientific name part <span style="background: LightGoldenRodYellow; margin: 4px; border: 1px solid khaki"> (220000000000#220000000003)</span></p></blockquote><blockquote><p><b>part</b></p><p><b>part</b>: 0.25 mg</p><p><b>type</b>: Strength part <span style="background: LightGoldenRodYellow; margin: 4px; border: 1px solid khaki"> (220000000000#220000000004)</span></p></blockquote><blockquote><p><b>part</b></p><p><b>part</b>: Capsule, hard</p><p><b>type</b>: Pharmaceutical dose form part <span style="background: LightGoldenRodYellow; margin: 4px; border: 1px solid khaki"> (220000000000#220000000005)</span></p></blockquote><h3>Usages</h3><table class="grid"><tr><td style="display: none">-</td><td><b>Country</b></td><td><b>Jurisdiction</b></td><td><b>Language</b></td></tr><tr><td style="display: none">*</td><td>United Kingdom <span style="background: LightGoldenRodYellow; margin: 4px; border: 1px solid khaki"> (<a href="http://terminology.hl7.org/5.3.0/CodeSystem-ISO3166Part1.html">ISO 3166-1 Codes for the representation of names of countries and their subdivisions — Part 1: Country code</a>#GBR)</span></td><td>United Kingdom <span style="background: LightGoldenRodYellow; margin: 4px; border: 1px solid khaki"> (<a href="http://terminology.hl7.org/5.3.0/CodeSystem-ISO3166Part1.html">ISO 3166-1 Codes for the representation of names of countries and their subdivisions — Part 1: Country code</a>#GBR)</span></td><td>English <span style="background: LightGoldenRodYellow; margin: 4px; border: 1px solid khaki"> (<a href="http://terminology.hl7.org/5.3.0/CodeSystem-v3-ietf3066.html">Tags for the Identification of Languages</a>#en)</span></td></tr></table></blockquote></div>
        </text>
        <identifier>
          <system value="http://www.mhra.gov.uk/"/>
          <value value="471bb15-7f52-4fcd-b615-8674ce6eb91e"/>
        </identifier>
        <type>
          <coding>
            <system value="http://hl7.org/fhir/medicinal-product-type"/>
            <code value="MedicinalProduct"/>
            <display value="Medicinal Product"/>
          </coding>
        </type>
        <domain>
          <coding>
            <system value="http://hl7.org/fhir/medicinal-product-domain"/>
            <code value="Human"/>
            <display value="Human use"/>
          </coding>
        </domain>
        <status>
          <coding>
            <system value="http://hl7.org/fhir/publication-status"/>
            <code value="active"/>
            <display value="active"/>
          </coding>
        </status>
        <legalStatusOfSupply>
          <coding>
            <system value="https://spor.ema.europa.eu/rmswi"/>
            <code value="100000072084"/>
            <display value="Medicinal product subject to medical prescription"/>
          </coding>
        </legalStatusOfSupply>
        <name>
          <productName value="Talzenna® (talazoparib) 0.25 mg hard capsules"/>
          <type>
            <coding>
              <system value="https://spor.ema.europa.eu/lists/220000000000"/>
              <code value="220000000001"/>
            </coding>
            <text value="Full name"/>
          </type>
          <part>
            <part value="Talzenna"/>
            <type>
              <coding>
                <system value="https://spor.ema.europa.eu/lists/220000000000"/>
                <code value="220000000002"/>
              </coding>
              <text value="Invented name part"/>
            </type>
          </part>
          <part>
            <part value="talazoparib"/>
            <type>
              <coding>
                <system value="https://spor.ema.europa.eu/lists/220000000000"/>
                <code value="220000000003"/>
              </coding>
              <text value="Scientific name part"/>
            </type>
          </part>
          <part>
            <part value="0.25 mg"/>
            <type>
              <coding>
                <system value="https://spor.ema.europa.eu/lists/220000000000"/>
                <code value="220000000004"/>
              </coding>
              <text value="Strength part"/>
            </type>
          </part>
          <part>
            <part value="Capsule, hard"/>
            <type>
              <coding>
                <system value="https://spor.ema.europa.eu/lists/220000000000"/>
                <code value="220000000005"/>
              </coding>
              <text value="Pharmaceutical dose form part"/>
            </type>
          </part>
          <usage>
            <country>
              <coding>
                <system value="urn:iso:std:iso:3166"/>
                <code value="GBR"/>
                <display value="United Kingdom"/>
              </coding>
            </country>
            <jurisdiction>
              <coding>
                <system value="urn:iso:std:iso:3166"/>
                <code value="GBR"/>
                <display value="United Kingdom"/>
              </coding>
            </jurisdiction>
            <language>
              <coding>
                <system value="urn:ietf:bcp:47"/>
                <code value="en"/>
                <display value="English"/>
              </coding>
            </language>
          </usage>
        </name>
      </MedicinalProductDefinition>
    </resource>
  </entry>
  <entry>
    <fullUrl value="http://hl7.eu/fhir/ig/gravitate-health/MedicinalProductDefinition/mp1mg"/>
    <resource>
      <MedicinalProductDefinition>
        <id value="mp1mg"/>
        <meta>
          <profile value="http://hl7.org/fhir/uv/emedicinal-product-info/StructureDefinition/MedicinalProductDefinition-uv-epi"/>
        </meta>
        <text>
          <status value="generated"/><div xmlns="http://www.w3.org/1999/xhtml"><p><b>Generated Narrative: MedicinalProductDefinition</b><a name="mp1mg"> </a></p><div style="display: inline-block; background-color: #d9e0e7; padding: 6px; margin: 4px; border: 1px solid #8da1b4; border-radius: 5px; line-height: 60%"><p style="margin-bottom: 0px">Resource MedicinalProductDefinition &quot;mp1mg&quot; </p><p style="margin-bottom: 0px">Profile: <a href="https://build.fhir.org/ig/HL7/emedicinal-product-info//StructureDefinition-MedicinalProductDefinition-uv-epi.html">MedicinalProductDefinition (ePI)</a></p></div><p><b>identifier</b>: id: 4471bb15-7f52-4fcd-b615-8674ce6eb91e</p><p><b>type</b>: Medicinal Product <span style="background: LightGoldenRodYellow; margin: 4px; border: 1px solid khaki"> (<a href="http://hl7.org/fhir/R5/codesystem-medicinal-product-type.html">Medicinal Product Type</a>#MedicinalProduct)</span></p><p><b>domain</b>: Human use <span style="background: LightGoldenRodYellow; margin: 4px; border: 1px solid khaki"> (<a href="http://hl7.org/fhir/R5/codesystem-medicinal-product-domain.html">Medicinal Product Domain</a>#Human)</span></p><p><b>status</b>: active <span style="background: LightGoldenRodYellow; margin: 4px; border: 1px solid khaki"> (<a href="http://hl7.org/fhir/R5/codesystem-publication-status.html">PublicationStatus</a>#active)</span></p><p><b>legalStatusOfSupply</b>: Medicinal product subject to medical prescription <span style="background: LightGoldenRodYellow; margin: 4px; border: 1px solid khaki"> (rmswi#100000072084)</span></p><blockquote><p><b>name</b></p><p><b>productName</b>: Talzenna® (talazoparib) 1 mg hard capsules</p><p><b>type</b>: Full name <span style="background: LightGoldenRodYellow; margin: 4px; border: 1px solid khaki"> (220000000000#220000000001)</span></p><blockquote><p><b>part</b></p><p><b>part</b>: Talzenna</p><p><b>type</b>: Invented name part <span style="background: LightGoldenRodYellow; margin: 4px; border: 1px solid khaki"> (220000000000#220000000002)</span></p></blockquote><blockquote><p><b>part</b></p><p><b>part</b>: talazoparib</p><p><b>type</b>: Scientific name part <span style="background: LightGoldenRodYellow; margin: 4px; border: 1px solid khaki"> (220000000000#220000000003)</span></p></blockquote><blockquote><p><b>part</b></p><p><b>part</b>: 1 mg</p><p><b>type</b>: Strength part <span style="background: LightGoldenRodYellow; margin: 4px; border: 1px solid khaki"> (220000000000#220000000004)</span></p></blockquote><blockquote><p><b>part</b></p><p><b>part</b>: Capsule, hard</p><p><b>type</b>: Pharmaceutical dose form part <span style="background: LightGoldenRodYellow; margin: 4px; border: 1px solid khaki"> (220000000000#220000000005)</span></p></blockquote><h3>Usages</h3><table class="grid"><tr><td style="display: none">-</td><td><b>Country</b></td><td><b>Jurisdiction</b></td><td><b>Language</b></td></tr><tr><td style="display: none">*</td><td>United Kingdom <span style="background: LightGoldenRodYellow; margin: 4px; border: 1px solid khaki"> (<a href="http://terminology.hl7.org/5.3.0/CodeSystem-ISO3166Part1.html">ISO 3166-1 Codes for the representation of names of countries and their subdivisions — Part 1: Country code</a>#GBR)</span></td><td>United Kingdom <span style="background: LightGoldenRodYellow; margin: 4px; border: 1px solid khaki"> (<a href="http://terminology.hl7.org/5.3.0/CodeSystem-ISO3166Part1.html">ISO 3166-1 Codes for the representation of names of countries and their subdivisions — Part 1: Country code</a>#GBR)</span></td><td>English <span style="background: LightGoldenRodYellow; margin: 4px; border: 1px solid khaki"> (<a href="http://terminology.hl7.org/5.3.0/CodeSystem-v3-ietf3066.html">Tags for the Identification of Languages</a>#en)</span></td></tr></table></blockquote></div>
        </text>
        <identifier>
          <system value="http://www.mhra.gov.uk/"/>
          <value value="4471bb15-7f52-4fcd-b615-8674ce6eb91e"/>
        </identifier>
        <type>
          <coding>
            <system value="http://hl7.org/fhir/medicinal-product-type"/>
            <code value="MedicinalProduct"/>
            <display value="Medicinal Product"/>
          </coding>
        </type>
        <domain>
          <coding>
            <system value="http://hl7.org/fhir/medicinal-product-domain"/>
            <code value="Human"/>
            <display value="Human use"/>
          </coding>
        </domain>
        <status>
          <coding>
            <system value="http://hl7.org/fhir/publication-status"/>
            <code value="active"/>
            <display value="active"/>
          </coding>
        </status>
        <legalStatusOfSupply>
          <coding>
            <system value="https://spor.ema.europa.eu/rmswi"/>
            <code value="100000072084"/>
            <display value="Medicinal product subject to medical prescription"/>
          </coding>
        </legalStatusOfSupply>
        <name>
          <productName value="Talzenna® (talazoparib) 1 mg hard capsules"/>
          <type>
            <coding>
              <system value="https://spor.ema.europa.eu/lists/220000000000"/>
              <code value="220000000001"/>
            </coding>
            <text value="Full name"/>
          </type>
          <part>
            <part value="Talzenna"/>
            <type>
              <coding>
                <system value="https://spor.ema.europa.eu/lists/220000000000"/>
                <code value="220000000002"/>
              </coding>
              <text value="Invented name part"/>
            </type>
          </part>
          <part>
            <part value="talazoparib"/>
            <type>
              <coding>
                <system value="https://spor.ema.europa.eu/lists/220000000000"/>
                <code value="220000000003"/>
              </coding>
              <text value="Scientific name part"/>
            </type>
          </part>
          <part>
            <part value="1 mg"/>
            <type>
              <coding>
                <system value="https://spor.ema.europa.eu/lists/220000000000"/>
                <code value="220000000004"/>
              </coding>
              <text value="Strength part"/>
            </type>
          </part>
          <part>
            <part value="Capsule, hard"/>
            <type>
              <coding>
                <system value="https://spor.ema.europa.eu/lists/220000000000"/>
                <code value="220000000005"/>
              </coding>
              <text value="Pharmaceutical dose form part"/>
            </type>
          </part>
          <usage>
            <country>
              <coding>
                <system value="urn:iso:std:iso:3166"/>
                <code value="GBR"/>
                <display value="United Kingdom"/>
              </coding>
            </country>
            <jurisdiction>
              <coding>
                <system value="urn:iso:std:iso:3166"/>
                <code value="GBR"/>
                <display value="United Kingdom"/>
              </coding>
            </jurisdiction>
            <language>
              <coding>
                <system value="urn:ietf:bcp:47"/>
                <code value="en"/>
                <display value="English"/>
              </coding>
            </language>
          </usage>
        </name>
      </MedicinalProductDefinition>
    </resource>
  </entry>
  <entry>
    <fullUrl value="http://hl7.eu/fhir/ig/gravitate-health/ClinicalUseDefinition/36fdf79a-1b9c-11ee-be56-0242ac120002"/>
    <resource>
      <ClinicalUseDefinition>
        <id value="36fdf79a-1b9c-11ee-be56-0242ac120002"/>
        <text>
          <status value="generated"/><div xmlns="http://www.w3.org/1999/xhtml"><p><b>Generated Narrative: ClinicalUseDefinition</b><a name="36fdf79a-1b9c-11ee-be56-0242ac120002"> </a></p><div style="display: inline-block; background-color: #d9e0e7; padding: 6px; margin: 4px; border: 1px solid #8da1b4; border-radius: 5px; line-height: 60%"><p style="margin-bottom: 0px">Resource ClinicalUseDefinition &quot;36fdf79a-1b9c-11ee-be56-0242ac120002&quot; </p></div><p><b>identifier</b>: id: N3RQ532IUT (use: OFFICIAL)</p><p><b>type</b>: interaction</p><p><b>subject</b>: </p><ul><li><a href="#MedicinalProductDefinition_mp025mg">See above (MedicinalProductDefinition/mp025mg)</a></li><li><a href="#MedicinalProductDefinition_mp1mg">See above (MedicinalProductDefinition/mp1mg)</a></li></ul><blockquote><p><b>interaction</b></p><h3>Interactants</h3><table class="grid"><tr><td style="display: none">-</td><td><b>Item[x]</b></td></tr><tr><td style="display: none">*</td><td>Amiodarone <span style="background: LightGoldenRodYellow; margin: 4px; border: 1px solid khaki"> (beta#N3RQ532IUT)</span></td></tr></table></blockquote></div>
        </text>
        <identifier>
          <use value="official"/>
          <system value="https://gsrs.ncats.nih.gov/ginas/app/beta"/>
          <value value="N3RQ532IUT"/>
        </identifier>
        <type value="interaction"/>
        <subject>
          <reference value="MedicinalProductDefinition/mp025mg"/>
        </subject>
        <subject>
          <reference value="MedicinalProductDefinition/mp1mg"/>
        </subject>
        <interaction>
          <interactant>
            <itemCodeableConcept>
              <coding>
                <system value="https://gsrs.ncats.nih.gov/ginas/app/beta"/>
                <code value="N3RQ532IUT"/>
                <display value="Amiodarone"/>
              </coding>
            </itemCodeableConcept>
          </interactant>
        </interaction>
      </ClinicalUseDefinition>
    </resource>
  </entry>
  <entry>
    <fullUrl value="http://hl7.eu/fhir/ig/gravitate-health/ClinicalUseDefinition/81a382e7-8e11-4097-a3fb-362de8c9377e"/>
    <resource>
      <ClinicalUseDefinition>
        <id value="81a382e7-8e11-4097-a3fb-362de8c9377e"/>
        <text>
          <status value="generated"/><div xmlns="http://www.w3.org/1999/xhtml"><p><b>Generated Narrative: ClinicalUseDefinition</b><a name="81a382e7-8e11-4097-a3fb-362de8c9377e"> </a></p><div style="display: inline-block; background-color: #d9e0e7; padding: 6px; margin: 4px; border: 1px solid #8da1b4; border-radius: 5px; line-height: 60%"><p style="margin-bottom: 0px">Resource ClinicalUseDefinition &quot;81a382e7-8e11-4097-a3fb-362de8c9377e&quot; </p></div><p><b>identifier</b>: id: 0K47UL67F2 (use: OFFICIAL)</p><p><b>type</b>: interaction</p><p><b>subject</b>: </p><ul><li><a href="#MedicinalProductDefinition_mp025mg">See above (MedicinalProductDefinition/mp025mg)</a></li><li><a href="#MedicinalProductDefinition_mp1mg">See above (MedicinalProductDefinition/mp1mg)</a></li></ul><blockquote><p><b>interaction</b></p><h3>Interactants</h3><table class="grid"><tr><td style="display: none">-</td><td><b>Item[x]</b></td></tr><tr><td style="display: none">*</td><td>carvedilol <span style="background: LightGoldenRodYellow; margin: 4px; border: 1px solid khaki"> (beta#0K47UL67F2)</span></td></tr></table></blockquote></div>
        </text>
        <identifier>
          <use value="official"/>
          <system value="https://gsrs.ncats.nih.gov/ginas/app/beta"/>
          <value value="0K47UL67F2"/>
        </identifier>
        <type value="interaction"/>
        <subject>
          <reference value="MedicinalProductDefinition/mp025mg"/>
        </subject>
        <subject>
          <reference value="MedicinalProductDefinition/mp1mg"/>
        </subject>
        <interaction>
          <interactant>
            <itemCodeableConcept>
              <coding>
                <system value="https://gsrs.ncats.nih.gov/ginas/app/beta"/>
                <code value="0K47UL67F2"/>
                <display value="carvedilol"/>
              </coding>
            </itemCodeableConcept>
          </interactant>
        </interaction>
      </ClinicalUseDefinition>
    </resource>
  </entry>
  <entry>
    <fullUrl value="http://hl7.eu/fhir/ig/gravitate-health/ClinicalUseDefinition/3a099eb4-fc14-41c3-bc14-8e5a4b5c51e9"/>
    <resource>
      <ClinicalUseDefinition>
        <id value="3a099eb4-fc14-41c3-bc14-8e5a4b5c51e9"/>
        <text>
          <status value="generated"/><div xmlns="http://www.w3.org/1999/xhtml"><p><b>Generated Narrative: ClinicalUseDefinition</b><a name="3a099eb4-fc14-41c3-bc14-8e5a4b5c51e9"> </a></p><div style="display: inline-block; background-color: #d9e0e7; padding: 6px; margin: 4px; border: 1px solid #8da1b4; border-radius: 5px; line-height: 60%"><p style="margin-bottom: 0px">Resource ClinicalUseDefinition &quot;3a099eb4-fc14-41c3-bc14-8e5a4b5c51e9&quot; </p></div><p><b>identifier</b>: id: JQZ1L091Y2 (use: OFFICIAL)</p><p><b>type</b>: interaction</p><p><b>subject</b>: </p><ul><li><a href="#MedicinalProductDefinition_mp025mg">See above (MedicinalProductDefinition/mp025mg)</a></li><li><a href="#MedicinalProductDefinition_mp1mg">See above (MedicinalProductDefinition/mp1mg)</a></li></ul><blockquote><p><b>interaction</b></p><h3>Interactants</h3><table class="grid"><tr><td style="display: none">-</td><td><b>Item[x]</b></td></tr><tr><td style="display: none">*</td><td>dronedarone <span style="background: LightGoldenRodYellow; margin: 4px; border: 1px solid khaki"> (beta#JQZ1L091Y2)</span></td></tr></table></blockquote></div>
        </text>
        <identifier>
          <use value="official"/>
          <system value="https://gsrs.ncats.nih.gov/ginas/app/beta"/>
          <value value="JQZ1L091Y2"/>
        </identifier>
        <type value="interaction"/>
        <subject>
          <reference value="MedicinalProductDefinition/mp025mg"/>
        </subject>
        <subject>
          <reference value="MedicinalProductDefinition/mp1mg"/>
        </subject>
        <interaction>
          <interactant>
            <itemCodeableConcept>
              <coding>
                <system value="https://gsrs.ncats.nih.gov/ginas/app/beta"/>
                <code value="JQZ1L091Y2"/>
                <display value="dronedarone"/>
              </coding>
            </itemCodeableConcept>
          </interactant>
        </interaction>
      </ClinicalUseDefinition>
    </resource>
  </entry>
  <entry>
    <fullUrl value="http://hl7.eu/fhir/ig/gravitate-health/ClinicalUseDefinition/341721cd-5b7e-4b97-895e-e489b1310f9b"/>
    <resource>
      <ClinicalUseDefinition>
        <id value="341721cd-5b7e-4b97-895e-e489b1310f9b"/>
        <text>
          <status value="generated"/><div xmlns="http://www.w3.org/1999/xhtml"><p><b>Generated Narrative: ClinicalUseDefinition</b><a name="341721cd-5b7e-4b97-895e-e489b1310f9b"> </a></p><div style="display: inline-block; background-color: #d9e0e7; padding: 6px; margin: 4px; border: 1px solid #8da1b4; border-radius: 5px; line-height: 60%"><p style="margin-bottom: 0px">Resource ClinicalUseDefinition &quot;341721cd-5b7e-4b97-895e-e489b1310f9b&quot; </p></div><p><b>identifier</b>: id: 68IQX3T69U (use: OFFICIAL)</p><p><b>type</b>: interaction</p><p><b>subject</b>: </p><ul><li><a href="#MedicinalProductDefinition_mp025mg">See above (MedicinalProductDefinition/mp025mg)</a></li><li><a href="#MedicinalProductDefinition_mp1mg">See above (MedicinalProductDefinition/mp1mg)</a></li></ul><blockquote><p><b>interaction</b></p><h3>Interactants</h3><table class="grid"><tr><td style="display: none">-</td><td><b>Item[x]</b></td></tr><tr><td style="display: none">*</td><td>propafenone <span style="background: LightGoldenRodYellow; margin: 4px; border: 1px solid khaki"> (beta#68IQX3T69U)</span></td></tr></table></blockquote></div>
        </text>
        <identifier>
          <use value="official"/>
          <system value="https://gsrs.ncats.nih.gov/ginas/app/beta"/>
          <value value="68IQX3T69U"/>
        </identifier>
        <type value="interaction"/>
        <subject>
          <reference value="MedicinalProductDefinition/mp025mg"/>
        </subject>
        <subject>
          <reference value="MedicinalProductDefinition/mp1mg"/>
        </subject>
        <interaction>
          <interactant>
            <itemCodeableConcept>
              <coding>
                <system value="https://gsrs.ncats.nih.gov/ginas/app/beta"/>
                <code value="68IQX3T69U"/>
                <display value="propafenone"/>
              </coding>
            </itemCodeableConcept>
          </interactant>
        </interaction>
      </ClinicalUseDefinition>
    </resource>
  </entry>
  <entry>
    <fullUrl value="http://hl7.eu/fhir/ig/gravitate-health/ClinicalUseDefinition/c15dd79b-e98e-4f1b-8a05-50f12b0c19d7"/>
    <resource>
      <ClinicalUseDefinition>
        <id value="c15dd79b-e98e-4f1b-8a05-50f12b0c19d7"/>
        <text>
          <status value="generated"/><div xmlns="http://www.w3.org/1999/xhtml"><p><b>Generated Narrative: ClinicalUseDefinition</b><a name="c15dd79b-e98e-4f1b-8a05-50f12b0c19d7"> </a></p><div style="display: inline-block; background-color: #d9e0e7; padding: 6px; margin: 4px; border: 1px solid #8da1b4; border-radius: 5px; line-height: 60%"><p style="margin-bottom: 0px">Resource ClinicalUseDefinition &quot;c15dd79b-e98e-4f1b-8a05-50f12b0c19d7&quot; </p></div><p><b>identifier</b>: id: ITX08688JL (use: OFFICIAL)</p><p><b>type</b>: interaction</p><p><b>subject</b>: </p><ul><li><a href="#MedicinalProductDefinition_mp025mg">See above (MedicinalProductDefinition/mp025mg)</a></li><li><a href="#MedicinalProductDefinition_mp1mg">See above (MedicinalProductDefinition/mp1mg)</a></li></ul><blockquote><p><b>interaction</b></p><h3>Interactants</h3><table class="grid"><tr><td style="display: none">-</td><td><b>Item[x]</b></td></tr><tr><td style="display: none">*</td><td>quinidine <span style="background: LightGoldenRodYellow; margin: 4px; border: 1px solid khaki"> (beta#ITX08688JL)</span></td></tr></table></blockquote></div>
        </text>
        <identifier>
          <use value="official"/>
          <system value="https://gsrs.ncats.nih.gov/ginas/app/beta"/>
          <value value="ITX08688JL"/>
        </identifier>
        <type value="interaction"/>
        <subject>
          <reference value="MedicinalProductDefinition/mp025mg"/>
        </subject>
        <subject>
          <reference value="MedicinalProductDefinition/mp1mg"/>
        </subject>
        <interaction>
          <interactant>
            <itemCodeableConcept>
              <coding>
                <system value="https://gsrs.ncats.nih.gov/ginas/app/beta"/>
                <code value="ITX08688JL"/>
                <display value="quinidine"/>
              </coding>
            </itemCodeableConcept>
          </interactant>
        </interaction>
      </ClinicalUseDefinition>
    </resource>
  </entry>
  <entry>
    <fullUrl value="http://hl7.eu/fhir/ig/gravitate-health/ClinicalUseDefinition/5a54b656-5e2c-4be0-b93f-7d540cb64711"/>
    <resource>
      <ClinicalUseDefinition>
        <id value="5a54b656-5e2c-4be0-b93f-7d540cb64711"/>
        <text>
          <status value="generated"/><div xmlns="http://www.w3.org/1999/xhtml"><p><b>Generated Narrative: ClinicalUseDefinition</b><a name="5a54b656-5e2c-4be0-b93f-7d540cb64711"> </a></p><div style="display: inline-block; background-color: #d9e0e7; padding: 6px; margin: 4px; border: 1px solid #8da1b4; border-radius: 5px; line-height: 60%"><p style="margin-bottom: 0px">Resource ClinicalUseDefinition &quot;5a54b656-5e2c-4be0-b93f-7d540cb64711&quot; </p></div><p><b>identifier</b>: id: A6IEZ5M406 (use: OFFICIAL)</p><p><b>type</b>: interaction</p><p><b>subject</b>: </p><ul><li><a href="#MedicinalProductDefinition_mp025mg">See above (MedicinalProductDefinition/mp025mg)</a></li><li><a href="#MedicinalProductDefinition_mp1mg">See above (MedicinalProductDefinition/mp1mg)</a></li></ul><blockquote><p><b>interaction</b></p><h3>Interactants</h3><table class="grid"><tr><td style="display: none">-</td><td><b>Item[x]</b></td></tr><tr><td style="display: none">*</td><td>ranolazine <span style="background: LightGoldenRodYellow; margin: 4px; border: 1px solid khaki"> (beta#A6IEZ5M406)</span></td></tr></table></blockquote></div>
        </text>
        <identifier>
          <use value="official"/>
          <system value="https://gsrs.ncats.nih.gov/ginas/app/beta"/>
          <value value="A6IEZ5M406"/>
        </identifier>
        <type value="interaction"/>
        <subject>
          <reference value="MedicinalProductDefinition/mp025mg"/>
        </subject>
        <subject>
          <reference value="MedicinalProductDefinition/mp1mg"/>
        </subject>
        <interaction>
          <interactant>
            <itemCodeableConcept>
              <coding>
                <system value="https://gsrs.ncats.nih.gov/ginas/app/beta"/>
                <code value="A6IEZ5M406"/>
                <display value="ranolazine"/>
              </coding>
            </itemCodeableConcept>
          </interactant>
        </interaction>
      </ClinicalUseDefinition>
    </resource>
  </entry>
  <entry>
    <fullUrl value="http://hl7.eu/fhir/ig/gravitate-health/ClinicalUseDefinition/4907c33b-e1ae-40a7-9e7c-242653c92e60"/>
    <resource>
      <ClinicalUseDefinition>
        <id value="4907c33b-e1ae-40a7-9e7c-242653c92e60"/>
        <text>
          <status value="generated"/><div xmlns="http://www.w3.org/1999/xhtml"><p><b>Generated Narrative: ClinicalUseDefinition</b><a name="4907c33b-e1ae-40a7-9e7c-242653c92e60"> </a></p><div style="display: inline-block; background-color: #d9e0e7; padding: 6px; margin: 4px; border: 1px solid #8da1b4; border-radius: 5px; line-height: 60%"><p style="margin-bottom: 0px">Resource ClinicalUseDefinition &quot;4907c33b-e1ae-40a7-9e7c-242653c92e60&quot; </p></div><p><b>identifier</b>: id: CJ0O37KU29 (use: OFFICIAL)</p><p><b>type</b>: interaction</p><p><b>subject</b>: </p><ul><li><a href="#MedicinalProductDefinition_mp025mg">See above (MedicinalProductDefinition/mp025mg)</a></li><li><a href="#MedicinalProductDefinition_mp1mg">See above (MedicinalProductDefinition/mp1mg)</a></li></ul><blockquote><p><b>interaction</b></p><h3>Interactants</h3><table class="grid"><tr><td style="display: none">-</td><td><b>Item[x]</b></td></tr><tr><td style="display: none">*</td><td>verapamil <span style="background: LightGoldenRodYellow; margin: 4px; border: 1px solid khaki"> (beta#CJ0O37KU29)</span></td></tr></table></blockquote></div>
        </text>
        <identifier>
          <use value="official"/>
          <system value="https://gsrs.ncats.nih.gov/ginas/app/beta"/>
          <value value="CJ0O37KU29"/>
        </identifier>
        <type value="interaction"/>
        <subject>
          <reference value="MedicinalProductDefinition/mp025mg"/>
        </subject>
        <subject>
          <reference value="MedicinalProductDefinition/mp1mg"/>
        </subject>
        <interaction>
          <interactant>
            <itemCodeableConcept>
              <coding>
                <system value="https://gsrs.ncats.nih.gov/ginas/app/beta"/>
                <code value="CJ0O37KU29"/>
                <display value="verapamil"/>
              </coding>
            </itemCodeableConcept>
          </interactant>
        </interaction>
      </ClinicalUseDefinition>
    </resource>
  </entry>
  <entry>
    <fullUrl value="http://hl7.eu/fhir/ig/gravitate-health/ClinicalUseDefinition/05a52022-c29a-4883-873b-c4cfaf05a696"/>
    <resource>
      <ClinicalUseDefinition>
        <id value="05a52022-c29a-4883-873b-c4cfaf05a696"/>
        <text>
          <status value="generated"/><div xmlns="http://www.w3.org/1999/xhtml"><p><b>Generated Narrative: ClinicalUseDefinition</b><a name="05a52022-c29a-4883-873b-c4cfaf05a696"> </a></p><div style="display: inline-block; background-color: #d9e0e7; padding: 6px; margin: 4px; border: 1px solid #8da1b4; border-radius: 5px; line-height: 60%"><p style="margin-bottom: 0px">Resource ClinicalUseDefinition &quot;05a52022-c29a-4883-873b-c4cfaf05a696&quot; </p></div><p><b>identifier</b>: id: H1250JIK0A (use: OFFICIAL)</p><p><b>type</b>: interaction</p><p><b>subject</b>: </p><ul><li><a href="#MedicinalProductDefinition_mp025mg">See above (MedicinalProductDefinition/mp025mg)</a></li><li><a href="#MedicinalProductDefinition_mp1mg">See above (MedicinalProductDefinition/mp1mg)</a></li></ul><blockquote><p><b>interaction</b></p><h3>Interactants</h3><table class="grid"><tr><td style="display: none">-</td><td><b>Item[x]</b></td></tr><tr><td style="display: none">*</td><td>Clarithromycin <span style="background: LightGoldenRodYellow; margin: 4px; border: 1px solid khaki"> (beta#H1250JIK0A)</span></td></tr></table></blockquote></div>
        </text>
        <identifier>
          <use value="official"/>
          <system value="https://gsrs.ncats.nih.gov/ginas/app/beta"/>
          <value value="H1250JIK0A"/>
        </identifier>
        <type value="interaction"/>
        <subject>
          <reference value="MedicinalProductDefinition/mp025mg"/>
        </subject>
        <subject>
          <reference value="MedicinalProductDefinition/mp1mg"/>
        </subject>
        <interaction>
          <interactant>
            <itemCodeableConcept>
              <coding>
                <system value="https://gsrs.ncats.nih.gov/ginas/app/beta"/>
                <code value="H1250JIK0A"/>
                <display value="Clarithromycin"/>
              </coding>
            </itemCodeableConcept>
          </interactant>
        </interaction>
      </ClinicalUseDefinition>
    </resource>
  </entry>
  <entry>
    <fullUrl value="http://hl7.eu/fhir/ig/gravitate-health/ClinicalUseDefinition/e0b859d1-beac-494d-b7d9-fe793efbbd96"/>
    <resource>
      <ClinicalUseDefinition>
        <id value="e0b859d1-beac-494d-b7d9-fe793efbbd96"/>
        <text>
          <status value="generated"/><div xmlns="http://www.w3.org/1999/xhtml"><p><b>Generated Narrative: ClinicalUseDefinition</b><a name="e0b859d1-beac-494d-b7d9-fe793efbbd96"> </a></p><div style="display: inline-block; background-color: #d9e0e7; padding: 6px; margin: 4px; border: 1px solid #8da1b4; border-radius: 5px; line-height: 60%"><p style="margin-bottom: 0px">Resource ClinicalUseDefinition &quot;e0b859d1-beac-494d-b7d9-fe793efbbd96&quot; </p></div><p><b>identifier</b>: id: 63937KV33D (use: OFFICIAL)</p><p><b>type</b>: interaction</p><p><b>subject</b>: </p><ul><li><a href="#MedicinalProductDefinition_mp025mg">See above (MedicinalProductDefinition/mp025mg)</a></li><li><a href="#MedicinalProductDefinition_mp1mg">See above (MedicinalProductDefinition/mp1mg)</a></li></ul><blockquote><p><b>interaction</b></p><h3>Interactants</h3><table class="grid"><tr><td style="display: none">-</td><td><b>Item[x]</b></td></tr><tr><td style="display: none">*</td><td>erythromycin <span style="background: LightGoldenRodYellow; margin: 4px; border: 1px solid khaki"> (beta#63937KV33D)</span></td></tr></table></blockquote></div>
        </text>
        <identifier>
          <use value="official"/>
          <system value="https://gsrs.ncats.nih.gov/ginas/app/beta"/>
          <value value="63937KV33D"/>
        </identifier>
        <type value="interaction"/>
        <subject>
          <reference value="MedicinalProductDefinition/mp025mg"/>
        </subject>
        <subject>
          <reference value="MedicinalProductDefinition/mp1mg"/>
        </subject>
        <interaction>
          <interactant>
            <itemCodeableConcept>
              <coding>
                <system value="https://gsrs.ncats.nih.gov/ginas/app/beta"/>
                <code value="63937KV33D"/>
                <display value="erythromycin"/>
              </coding>
            </itemCodeableConcept>
          </interactant>
        </interaction>
      </ClinicalUseDefinition>
    </resource>
  </entry>
  <entry>
    <fullUrl value="http://hl7.eu/fhir/ig/gravitate-health/ClinicalUseDefinition/e09c86b1-b802-4c2e-b8eb-6b49192fadfe"/>
    <resource>
      <ClinicalUseDefinition>
        <id value="e09c86b1-b802-4c2e-b8eb-6b49192fadfe"/>
        <text>
          <status value="generated"/><div xmlns="http://www.w3.org/1999/xhtml"><p><b>Generated Narrative: ClinicalUseDefinition</b><a name="e09c86b1-b802-4c2e-b8eb-6b49192fadfe"> </a></p><div style="display: inline-block; background-color: #d9e0e7; padding: 6px; margin: 4px; border: 1px solid #8da1b4; border-radius: 5px; line-height: 60%"><p style="margin-bottom: 0px">Resource ClinicalUseDefinition &quot;e09c86b1-b802-4c2e-b8eb-6b49192fadfe&quot; </p></div><p><b>identifier</b>: id: 304NUG5GF4 (use: OFFICIAL)</p><p><b>type</b>: interaction</p><p><b>subject</b>: </p><ul><li><a href="#MedicinalProductDefinition_mp025mg">See above (MedicinalProductDefinition/mp025mg)</a></li><li><a href="#MedicinalProductDefinition_mp1mg">See above (MedicinalProductDefinition/mp1mg)</a></li></ul><blockquote><p><b>interaction</b></p><h3>Interactants</h3><table class="grid"><tr><td style="display: none">-</td><td><b>Item[x]</b></td></tr><tr><td style="display: none">*</td><td>Itraconazole <span style="background: LightGoldenRodYellow; margin: 4px; border: 1px solid khaki"> (beta#304NUG5GF4)</span></td></tr></table></blockquote></div>
        </text>
        <identifier>
          <use value="official"/>
          <system value="https://gsrs.ncats.nih.gov/ginas/app/beta"/>
          <value value="304NUG5GF4"/>
        </identifier>
        <type value="interaction"/>
        <subject>
          <reference value="MedicinalProductDefinition/mp025mg"/>
        </subject>
        <subject>
          <reference value="MedicinalProductDefinition/mp1mg"/>
        </subject>
        <interaction>
          <interactant>
            <itemCodeableConcept>
              <coding>
                <system value="https://gsrs.ncats.nih.gov/ginas/app/beta"/>
                <code value="304NUG5GF4"/>
                <display value="Itraconazole"/>
              </coding>
            </itemCodeableConcept>
          </interactant>
        </interaction>
      </ClinicalUseDefinition>
    </resource>
  </entry>
  <entry>
    <fullUrl value="http://hl7.eu/fhir/ig/gravitate-health/ClinicalUseDefinition/b31a89e6-abda-40eb-ba77-5ec9357b62e7"/>
    <resource>
      <ClinicalUseDefinition>
        <id value="b31a89e6-abda-40eb-ba77-5ec9357b62e7"/>
        <text>
          <status value="generated"/><div xmlns="http://www.w3.org/1999/xhtml"><p><b>Generated Narrative: ClinicalUseDefinition</b><a name="b31a89e6-abda-40eb-ba77-5ec9357b62e7"> </a></p><div style="display: inline-block; background-color: #d9e0e7; padding: 6px; margin: 4px; border: 1px solid #8da1b4; border-radius: 5px; line-height: 60%"><p style="margin-bottom: 0px">Resource ClinicalUseDefinition &quot;b31a89e6-abda-40eb-ba77-5ec9357b62e7&quot; </p></div><p><b>identifier</b>: id: R9400W927I (use: OFFICIAL)</p><p><b>type</b>: interaction</p><p><b>subject</b>: </p><ul><li><a href="#MedicinalProductDefinition_mp025mg">See above (MedicinalProductDefinition/mp025mg)</a></li><li><a href="#MedicinalProductDefinition_mp1mg">See above (MedicinalProductDefinition/mp1mg)</a></li></ul><blockquote><p><b>interaction</b></p><h3>Interactants</h3><table class="grid"><tr><td style="display: none">-</td><td><b>Item[x]</b></td></tr><tr><td style="display: none">*</td><td>ketoconazole <span style="background: LightGoldenRodYellow; margin: 4px; border: 1px solid khaki"> (beta#R9400W927I)</span></td></tr></table></blockquote></div>
        </text>
        <identifier>
          <use value="official"/>
          <system value="https://gsrs.ncats.nih.gov/ginas/app/beta"/>
          <value value="R9400W927I"/>
        </identifier>
        <type value="interaction"/>
        <subject>
          <reference value="MedicinalProductDefinition/mp025mg"/>
        </subject>
        <subject>
          <reference value="MedicinalProductDefinition/mp1mg"/>
        </subject>
        <interaction>
          <interactant>
            <itemCodeableConcept>
              <coding>
                <system value="https://gsrs.ncats.nih.gov/ginas/app/beta"/>
                <code value="R9400W927I"/>
                <display value="ketoconazole"/>
              </coding>
            </itemCodeableConcept>
          </interactant>
        </interaction>
      </ClinicalUseDefinition>
    </resource>
  </entry>
  <entry>
    <fullUrl value="http://hl7.eu/fhir/ig/gravitate-health/ClinicalUseDefinition/f0914110-749f-4afa-982a-627eacb5720b"/>
    <resource>
      <ClinicalUseDefinition>
        <id value="f0914110-749f-4afa-982a-627eacb5720b"/>
        <text>
          <status value="generated"/><div xmlns="http://www.w3.org/1999/xhtml"><p><b>Generated Narrative: ClinicalUseDefinition</b><a name="f0914110-749f-4afa-982a-627eacb5720b"> </a></p><div style="display: inline-block; background-color: #d9e0e7; padding: 6px; margin: 4px; border: 1px solid #8da1b4; border-radius: 5px; line-height: 60%"><p style="margin-bottom: 0px">Resource ClinicalUseDefinition &quot;f0914110-749f-4afa-982a-627eacb5720b&quot; </p></div><p><b>identifier</b>: id: LW2E03M5PG (use: OFFICIAL)</p><p><b>type</b>: interaction</p><p><b>subject</b>: </p><ul><li><a href="#MedicinalProductDefinition_mp025mg">See above (MedicinalProductDefinition/mp025mg)</a></li><li><a href="#MedicinalProductDefinition_mp1mg">See above (MedicinalProductDefinition/mp1mg)</a></li></ul><blockquote><p><b>interaction</b></p><h3>Interactants</h3><table class="grid"><tr><td style="display: none">-</td><td><b>Item[x]</b></td></tr><tr><td style="display: none">*</td><td>Cobicistat <span style="background: LightGoldenRodYellow; margin: 4px; border: 1px solid khaki"> (beta#LW2E03M5PG)</span></td></tr></table></blockquote></div>
        </text>
        <identifier>
          <use value="official"/>
          <system value="https://gsrs.ncats.nih.gov/ginas/app/beta"/>
          <value value="LW2E03M5PG"/>
        </identifier>
        <type value="interaction"/>
        <subject>
          <reference value="MedicinalProductDefinition/mp025mg"/>
        </subject>
        <subject>
          <reference value="MedicinalProductDefinition/mp1mg"/>
        </subject>
        <interaction>
          <interactant>
            <itemCodeableConcept>
              <coding>
                <system value="https://gsrs.ncats.nih.gov/ginas/app/beta"/>
                <code value="LW2E03M5PG"/>
                <display value="Cobicistat"/>
              </coding>
            </itemCodeableConcept>
          </interactant>
        </interaction>
      </ClinicalUseDefinition>
    </resource>
  </entry>
  <entry>
    <fullUrl value="http://hl7.eu/fhir/ig/gravitate-health/ClinicalUseDefinition/b40984a8-0a6b-43d0-911a-ff5b927fb4ca"/>
    <resource>
      <ClinicalUseDefinition>
        <id value="b40984a8-0a6b-43d0-911a-ff5b927fb4ca"/>
        <meta>
          <profile value="http://hl7.org/fhir/uv/emedicinal-product-info/StructureDefinition/ClinicalUseDefinition-interaction-uv-epi"/>
        </meta>
        <text>
          <status value="generated"/><div xmlns="http://www.w3.org/1999/xhtml"><p><b>Generated Narrative: ClinicalUseDefinition</b><a name="b40984a8-0a6b-43d0-911a-ff5b927fb4ca"> </a></p><div style="display: inline-block; background-color: #d9e0e7; padding: 6px; margin: 4px; border: 1px solid #8da1b4; border-radius: 5px; line-height: 60%"><p style="margin-bottom: 0px">Resource ClinicalUseDefinition &quot;b40984a8-0a6b-43d0-911a-ff5b927fb4ca&quot; </p><p style="margin-bottom: 0px">Profile: <a href="https://build.fhir.org/ig/HL7/emedicinal-product-info//StructureDefinition-ClinicalUseDefinition-interaction-uv-epi.html">ClinicalUseDefinition Interaction (ePI)</a></p></div><p><b>identifier</b>: id: YO603Y8113 (use: OFFICIAL)</p><p><b>type</b>: interaction</p><p><b>subject</b>: </p><ul><li><a href="#MedicinalProductDefinition_mp025mg">See above (MedicinalProductDefinition/mp025mg)</a></li><li><a href="#MedicinalProductDefinition_mp1mg">See above (MedicinalProductDefinition/mp1mg)</a></li></ul><blockquote><p><b>interaction</b></p><h3>Interactants</h3><table class="grid"><tr><td style="display: none">-</td><td><b>Item[x]</b></td></tr><tr><td style="display: none">*</td><td>darunavir <span style="background: LightGoldenRodYellow; margin: 4px; border: 1px solid khaki"> (beta#YO603Y8113)</span></td></tr></table></blockquote></div>
        </text>
        <identifier>
          <use value="official"/>
          <system value="https://gsrs.ncats.nih.gov/ginas/app/beta"/>
          <value value="YO603Y8113"/>
        </identifier>
        <type value="interaction"/>
        <subject>
          <reference value="MedicinalProductDefinition/mp025mg"/>
        </subject>
        <subject>
          <reference value="MedicinalProductDefinition/mp1mg"/>
        </subject>
        <interaction>
          <interactant>
            <itemCodeableConcept>
              <coding>
                <system value="https://gsrs.ncats.nih.gov/ginas/app/beta"/>
                <code value="YO603Y8113"/>
                <display value="darunavir"/>
              </coding>
            </itemCodeableConcept>
          </interactant>
        </interaction>
      </ClinicalUseDefinition>
    </resource>
  </entry>
  <entry>
    <fullUrl value="http://hl7.eu/fhir/ig/gravitate-health/ClinicalUseDefinition/8d54b4fd-1b9f-4114-991a-0a08e1dc2d98"/>
    <resource>
      <ClinicalUseDefinition>
        <id value="8d54b4fd-1b9f-4114-991a-0a08e1dc2d98"/>
        <text>
          <status value="generated"/><div xmlns="http://www.w3.org/1999/xhtml"><p><b>Generated Narrative: ClinicalUseDefinition</b><a name="8d54b4fd-1b9f-4114-991a-0a08e1dc2d98"> </a></p><div style="display: inline-block; background-color: #d9e0e7; padding: 6px; margin: 4px; border: 1px solid #8da1b4; border-radius: 5px; line-height: 60%"><p style="margin-bottom: 0px">Resource ClinicalUseDefinition &quot;8d54b4fd-1b9f-4114-991a-0a08e1dc2d98&quot; </p></div><p><b>identifier</b>: id: 5W6YA9PKKH (use: OFFICIAL)</p><p><b>type</b>: interaction</p><p><b>subject</b>: </p><ul><li><a href="#MedicinalProductDefinition_mp025mg">See above (MedicinalProductDefinition/mp025mg)</a></li><li><a href="#MedicinalProductDefinition_mp1mg">See above (MedicinalProductDefinition/mp1mg)</a></li></ul><blockquote><p><b>interaction</b></p><h3>Interactants</h3><table class="grid"><tr><td style="display: none">-</td><td><b>Item[x]</b></td></tr><tr><td style="display: none">*</td><td>indinavir <span style="background: LightGoldenRodYellow; margin: 4px; border: 1px solid khaki"> (beta#5W6YA9PKKH)</span></td></tr></table></blockquote></div>
        </text>
        <identifier>
          <use value="official"/>
          <system value="https://gsrs.ncats.nih.gov/ginas/app/beta"/>
          <value value="5W6YA9PKKH"/>
        </identifier>
        <type value="interaction"/>
        <subject>
          <reference value="MedicinalProductDefinition/mp025mg"/>
        </subject>
        <subject>
          <reference value="MedicinalProductDefinition/mp1mg"/>
        </subject>
        <interaction>
          <interactant>
            <itemCodeableConcept>
              <coding>
                <system value="https://gsrs.ncats.nih.gov/ginas/app/beta"/>
                <code value="5W6YA9PKKH"/>
                <display value="indinavir"/>
              </coding>
            </itemCodeableConcept>
          </interactant>
        </interaction>
      </ClinicalUseDefinition>
    </resource>
  </entry>
  <entry>
    <fullUrl value="http://hl7.eu/fhir/ig/gravitate-health/ClinicalUseDefinition/3e52afa2-3310-4e52-9d61-7bfcfd97a25f"/>
    <resource>
      <ClinicalUseDefinition>
        <id value="3e52afa2-3310-4e52-9d61-7bfcfd97a25f"/>
        <text>
          <status value="generated"/><div xmlns="http://www.w3.org/1999/xhtml"><p><b>Generated Narrative: ClinicalUseDefinition</b><a name="3e52afa2-3310-4e52-9d61-7bfcfd97a25f"> </a></p><div style="display: inline-block; background-color: #d9e0e7; padding: 6px; margin: 4px; border: 1px solid #8da1b4; border-radius: 5px; line-height: 60%"><p style="margin-bottom: 0px">Resource ClinicalUseDefinition &quot;3e52afa2-3310-4e52-9d61-7bfcfd97a25f&quot; </p></div><p><b>identifier</b>: id: 2494G1JF75 (use: OFFICIAL)</p><p><b>type</b>: interaction</p><p><b>subject</b>: </p><ul><li><a href="#MedicinalProductDefinition_mp025mg">See above (MedicinalProductDefinition/mp025mg)</a></li><li><a href="#MedicinalProductDefinition_mp1mg">See above (MedicinalProductDefinition/mp1mg)</a></li></ul><blockquote><p><b>interaction</b></p><h3>Interactants</h3><table class="grid"><tr><td style="display: none">-</td><td><b>Item[x]</b></td></tr><tr><td style="display: none">*</td><td>lopinavir <span style="background: LightGoldenRodYellow; margin: 4px; border: 1px solid khaki"> (beta#2494G1JF75)</span></td></tr></table></blockquote></div>
        </text>
        <identifier>
          <use value="official"/>
          <system value="https://gsrs.ncats.nih.gov/ginas/app/beta"/>
          <value value="2494G1JF75"/>
        </identifier>
        <type value="interaction"/>
        <subject>
          <reference value="MedicinalProductDefinition/mp025mg"/>
        </subject>
        <subject>
          <reference value="MedicinalProductDefinition/mp1mg"/>
        </subject>
        <interaction>
          <interactant>
            <itemCodeableConcept>
              <coding>
                <system value="https://gsrs.ncats.nih.gov/ginas/app/beta"/>
                <code value="2494G1JF75"/>
                <display value="lopinavir"/>
              </coding>
            </itemCodeableConcept>
          </interactant>
        </interaction>
      </ClinicalUseDefinition>
    </resource>
  </entry>
  <entry>
    <fullUrl value="http://hl7.eu/fhir/ig/gravitate-health/ClinicalUseDefinition/9654bfac-8458-4172-b74f-680a95036cff"/>
    <resource>
      <ClinicalUseDefinition>
        <id value="9654bfac-8458-4172-b74f-680a95036cff"/>
        <text>
          <status value="generated"/><div xmlns="http://www.w3.org/1999/xhtml"><p><b>Generated Narrative: ClinicalUseDefinition</b><a name="9654bfac-8458-4172-b74f-680a95036cff"> </a></p><div style="display: inline-block; background-color: #d9e0e7; padding: 6px; margin: 4px; border: 1px solid #8da1b4; border-radius: 5px; line-height: 60%"><p style="margin-bottom: 0px">Resource ClinicalUseDefinition &quot;9654bfac-8458-4172-b74f-680a95036cff&quot; </p></div><p><b>identifier</b>: id: O3J8G9O825 (use: OFFICIAL)</p><p><b>type</b>: interaction</p><p><b>subject</b>: </p><ul><li><a href="#MedicinalProductDefinition_mp025mg">See above (MedicinalProductDefinition/mp025mg)</a></li><li><a href="#MedicinalProductDefinition_mp1mg">See above (MedicinalProductDefinition/mp1mg)</a></li></ul><blockquote><p><b>interaction</b></p><h3>Interactants</h3><table class="grid"><tr><td style="display: none">-</td><td><b>Item[x]</b></td></tr><tr><td style="display: none">*</td><td>ritonavir <span style="background: LightGoldenRodYellow; margin: 4px; border: 1px solid khaki"> (beta#O3J8G9O825)</span></td></tr></table></blockquote></div>
        </text>
        <identifier>
          <use value="official"/>
          <system value="https://gsrs.ncats.nih.gov/ginas/app/beta"/>
          <value value="O3J8G9O825"/>
        </identifier>
        <type value="interaction"/>
        <subject>
          <reference value="MedicinalProductDefinition/mp025mg"/>
        </subject>
        <subject>
          <reference value="MedicinalProductDefinition/mp1mg"/>
        </subject>
        <interaction>
          <interactant>
            <itemCodeableConcept>
              <coding>
                <system value="https://gsrs.ncats.nih.gov/ginas/app/beta"/>
                <code value="O3J8G9O825"/>
                <display value="ritonavir"/>
              </coding>
            </itemCodeableConcept>
          </interactant>
        </interaction>
      </ClinicalUseDefinition>
    </resource>
  </entry>
  <entry>
    <fullUrl value="http://hl7.eu/fhir/ig/gravitate-health/ClinicalUseDefinition/374f27ff-35f8-4e01-8fa5-53aafc8b48d6"/>
    <resource>
      <ClinicalUseDefinition>
        <id value="374f27ff-35f8-4e01-8fa5-53aafc8b48d6"/>
        <text>
          <status value="generated"/><div xmlns="http://www.w3.org/1999/xhtml"><p><b>Generated Narrative: ClinicalUseDefinition</b><a name="374f27ff-35f8-4e01-8fa5-53aafc8b48d6"> </a></p><div style="display: inline-block; background-color: #d9e0e7; padding: 6px; margin: 4px; border: 1px solid #8da1b4; border-radius: 5px; line-height: 60%"><p style="margin-bottom: 0px">Resource ClinicalUseDefinition &quot;374f27ff-35f8-4e01-8fa5-53aafc8b48d6&quot; </p></div><p><b>identifier</b>: id: L3JE09KZ2F (use: OFFICIAL)</p><p><b>type</b>: interaction</p><p><b>subject</b>: </p><ul><li><a href="#MedicinalProductDefinition_mp025mg">See above (MedicinalProductDefinition/mp025mg)</a></li><li><a href="#MedicinalProductDefinition_mp1mg">See above (MedicinalProductDefinition/mp1mg)</a></li></ul><blockquote><p><b>interaction</b></p><h3>Interactants</h3><table class="grid"><tr><td style="display: none">-</td><td><b>Item[x]</b></td></tr><tr><td style="display: none">*</td><td>saquinavir <span style="background: LightGoldenRodYellow; margin: 4px; border: 1px solid khaki"> (beta#L3JE09KZ2F)</span></td></tr></table></blockquote></div>
        </text>
        <identifier>
          <use value="official"/>
          <system value="https://gsrs.ncats.nih.gov/ginas/app/beta"/>
          <value value="L3JE09KZ2F"/>
        </identifier>
        <type value="interaction"/>
        <subject>
          <reference value="MedicinalProductDefinition/mp025mg"/>
        </subject>
        <subject>
          <reference value="MedicinalProductDefinition/mp1mg"/>
        </subject>
        <interaction>
          <interactant>
            <itemCodeableConcept>
              <coding>
                <system value="https://gsrs.ncats.nih.gov/ginas/app/beta"/>
                <code value="L3JE09KZ2F"/>
                <display value="saquinavir"/>
              </coding>
            </itemCodeableConcept>
          </interactant>
        </interaction>
      </ClinicalUseDefinition>
    </resource>
  </entry>
  <entry>
    <fullUrl value="http://hl7.eu/fhir/ig/gravitate-health/ClinicalUseDefinition/e416132b-4b3c-4aee-860f-604fa409ddc1"/>
    <resource>
      <ClinicalUseDefinition>
        <id value="e416132b-4b3c-4aee-860f-604fa409ddc1"/>
        <text>
          <status value="generated"/><div xmlns="http://www.w3.org/1999/xhtml"><p><b>Generated Narrative: ClinicalUseDefinition</b><a name="e416132b-4b3c-4aee-860f-604fa409ddc1"> </a></p><div style="display: inline-block; background-color: #d9e0e7; padding: 6px; margin: 4px; border: 1px solid #8da1b4; border-radius: 5px; line-height: 60%"><p style="margin-bottom: 0px">Resource ClinicalUseDefinition &quot;e416132b-4b3c-4aee-860f-604fa409ddc1&quot; </p></div><p><b>identifier</b>: id: 655M5O3W0U (use: OFFICIAL)</p><p><b>type</b>: interaction</p><p><b>subject</b>: </p><ul><li><a href="#MedicinalProductDefinition_mp025mg">See above (MedicinalProductDefinition/mp025mg)</a></li><li><a href="#MedicinalProductDefinition_mp1mg">See above (MedicinalProductDefinition/mp1mg)</a></li></ul><blockquote><p><b>interaction</b></p><h3>Interactants</h3><table class="grid"><tr><td style="display: none">-</td><td><b>Item[x]</b></td></tr><tr><td style="display: none">*</td><td>telaprevir <span style="background: LightGoldenRodYellow; margin: 4px; border: 1px solid khaki"> (beta#655M5O3W0U)</span></td></tr></table></blockquote></div>
        </text>
        <identifier>
          <use value="official"/>
          <system value="https://gsrs.ncats.nih.gov/ginas/app/beta"/>
          <value value="655M5O3W0U"/>
        </identifier>
        <type value="interaction"/>
        <subject>
          <reference value="MedicinalProductDefinition/mp025mg"/>
        </subject>
        <subject>
          <reference value="MedicinalProductDefinition/mp1mg"/>
        </subject>
        <interaction>
          <interactant>
            <itemCodeableConcept>
              <coding>
                <system value="https://gsrs.ncats.nih.gov/ginas/app/beta"/>
                <code value="655M5O3W0U"/>
                <display value="telaprevir"/>
              </coding>
            </itemCodeableConcept>
          </interactant>
        </interaction>
      </ClinicalUseDefinition>
    </resource>
  </entry>
  <entry>
    <fullUrl value="http://hl7.eu/fhir/ig/gravitate-health/ClinicalUseDefinition/f05bbecb-ba90-4d52-ae05-b13502954530"/>
    <resource>
      <ClinicalUseDefinition>
        <id value="f05bbecb-ba90-4d52-ae05-b13502954530"/>
        <text>
          <status value="generated"/><div xmlns="http://www.w3.org/1999/xhtml"><p><b>Generated Narrative: ClinicalUseDefinition</b><a name="f05bbecb-ba90-4d52-ae05-b13502954530"> </a></p><div style="display: inline-block; background-color: #d9e0e7; padding: 6px; margin: 4px; border: 1px solid #8da1b4; border-radius: 5px; line-height: 60%"><p style="margin-bottom: 0px">Resource ClinicalUseDefinition &quot;f05bbecb-ba90-4d52-ae05-b13502954530&quot; </p></div><p><b>identifier</b>: id: ZZT404XD09 (use: OFFICIAL)</p><p><b>type</b>: interaction</p><p><b>subject</b>: </p><ul><li><a href="#MedicinalProductDefinition_mp025mg">See above (MedicinalProductDefinition/mp025mg)</a></li><li><a href="#MedicinalProductDefinition_mp1mg">See above (MedicinalProductDefinition/mp1mg)</a></li></ul><blockquote><p><b>interaction</b></p><h3>Interactants</h3><table class="grid"><tr><td style="display: none">-</td><td><b>Item[x]</b></td></tr><tr><td style="display: none">*</td><td>tipranavir <span style="background: LightGoldenRodYellow; margin: 4px; border: 1px solid khaki"> (beta#ZZT404XD09)</span></td></tr></table></blockquote></div>
        </text>
        <identifier>
          <use value="official"/>
          <system value="https://gsrs.ncats.nih.gov/ginas/app/beta"/>
          <value value="ZZT404XD09"/>
        </identifier>
        <type value="interaction"/>
        <subject>
          <reference value="MedicinalProductDefinition/mp025mg"/>
        </subject>
        <subject>
          <reference value="MedicinalProductDefinition/mp1mg"/>
        </subject>
        <interaction>
          <interactant>
            <itemCodeableConcept>
              <coding>
                <system value="https://gsrs.ncats.nih.gov/ginas/app/beta"/>
                <code value="ZZT404XD09"/>
                <display value="tipranavir"/>
              </coding>
            </itemCodeableConcept>
          </interactant>
        </interaction>
      </ClinicalUseDefinition>
    </resource>
  </entry>
  <entry>
    <fullUrl value="http://hl7.eu/fhir/ig/gravitate-health/ClinicalUseDefinition/f35aa761-20e7-4e66-9ac6-2c4ab3d42507"/>
    <resource>
      <ClinicalUseDefinition>
        <id value="f35aa761-20e7-4e66-9ac6-2c4ab3d42507"/>
        <text>
          <status value="generated"/><div xmlns="http://www.w3.org/1999/xhtml"><p><b>Generated Narrative: ClinicalUseDefinition</b><a name="f35aa761-20e7-4e66-9ac6-2c4ab3d42507"> </a></p><div style="display: inline-block; background-color: #d9e0e7; padding: 6px; margin: 4px; border: 1px solid #8da1b4; border-radius: 5px; line-height: 60%"><p style="margin-bottom: 0px">Resource ClinicalUseDefinition &quot;f35aa761-20e7-4e66-9ac6-2c4ab3d42507&quot; </p></div><p><b>identifier</b>: id: 83HN0GTJ6D (use: OFFICIAL)</p><p><b>type</b>: interaction</p><p><b>subject</b>: </p><ul><li><a href="#MedicinalProductDefinition_mp025mg">See above (MedicinalProductDefinition/mp025mg)</a></li><li><a href="#MedicinalProductDefinition_mp1mg">See above (MedicinalProductDefinition/mp1mg)</a></li></ul><blockquote><p><b>interaction</b></p><h3>Interactants</h3><table class="grid"><tr><td style="display: none">-</td><td><b>Item[x]</b></td></tr><tr><td style="display: none">*</td><td>Ciclosporin <span style="background: LightGoldenRodYellow; margin: 4px; border: 1px solid khaki"> (beta#83HN0GTJ6D)</span></td></tr></table></blockquote></div>
        </text>
        <identifier>
          <use value="official"/>
          <system value="https://gsrs.ncats.nih.gov/ginas/app/beta"/>
          <value value="83HN0GTJ6D"/>
        </identifier>
        <type value="interaction"/>
        <subject>
          <reference value="MedicinalProductDefinition/mp025mg"/>
        </subject>
        <subject>
          <reference value="MedicinalProductDefinition/mp1mg"/>
        </subject>
        <interaction>
          <interactant>
            <itemCodeableConcept>
              <coding>
                <system value="https://gsrs.ncats.nih.gov/ginas/app/beta"/>
                <code value="83HN0GTJ6D"/>
                <display value="Ciclosporin"/>
              </coding>
            </itemCodeableConcept>
          </interactant>
        </interaction>
      </ClinicalUseDefinition>
    </resource>
  </entry>
  <entry>
    <fullUrl value="http://hl7.eu/fhir/ig/gravitate-health/ClinicalUseDefinition/5c6da0df-7747-490c-8ae4-93d8883b059b"/>
    <resource>
      <ClinicalUseDefinition>
        <id value="5c6da0df-7747-490c-8ae4-93d8883b059b"/>
        <text>
          <status value="generated"/><div xmlns="http://www.w3.org/1999/xhtml"><p><b>Generated Narrative: ClinicalUseDefinition</b><a name="5c6da0df-7747-490c-8ae4-93d8883b059b"> </a></p><div style="display: inline-block; background-color: #d9e0e7; padding: 6px; margin: 4px; border: 1px solid #8da1b4; border-radius: 5px; line-height: 60%"><p style="margin-bottom: 0px">Resource ClinicalUseDefinition &quot;5c6da0df-7747-490c-8ae4-93d8883b059b&quot; </p></div><p><b>identifier</b>: id: 0VUA21238F (use: OFFICIAL)</p><p><b>type</b>: interaction</p><p><b>subject</b>: </p><ul><li><a href="#MedicinalProductDefinition_mp025mg">See above (MedicinalProductDefinition/mp025mg)</a></li><li><a href="#MedicinalProductDefinition_mp1mg">See above (MedicinalProductDefinition/mp1mg)</a></li></ul><blockquote><p><b>interaction</b></p><h3>Interactants</h3><table class="grid"><tr><td style="display: none">-</td><td><b>Item[x]</b></td></tr><tr><td style="display: none">*</td><td>Lapatinib <span style="background: LightGoldenRodYellow; margin: 4px; border: 1px solid khaki"> (beta#0VUA21238F)</span></td></tr></table></blockquote></div>
        </text>
        <identifier>
          <use value="official"/>
          <system value="https://gsrs.ncats.nih.gov/ginas/app/beta"/>
          <value value="0VUA21238F"/>
        </identifier>
        <type value="interaction"/>
        <subject>
          <reference value="MedicinalProductDefinition/mp025mg"/>
        </subject>
        <subject>
          <reference value="MedicinalProductDefinition/mp1mg"/>
        </subject>
        <interaction>
          <interactant>
            <itemCodeableConcept>
              <coding>
                <system value="https://gsrs.ncats.nih.gov/ginas/app/beta"/>
                <code value="0VUA21238F"/>
                <display value="Lapatinib"/>
              </coding>
            </itemCodeableConcept>
          </interactant>
        </interaction>
      </ClinicalUseDefinition>
    </resource>
  </entry>
  <entry>
    <fullUrl value="http://hl7.eu/fhir/ig/gravitate-health/ClinicalUseDefinition/36fe191e-1b9c-11ee-be56-0242ac120002"/>
    <resource>
      <ClinicalUseDefinition>
        <id value="36fe191e-1b9c-11ee-be56-0242ac120002"/>
        <text>
          <status value="generated"/><div xmlns="http://www.w3.org/1999/xhtml"><p><b>Generated Narrative: ClinicalUseDefinition</b><a name="36fe191e-1b9c-11ee-be56-0242ac120002"> </a></p><div style="display: inline-block; background-color: #d9e0e7; padding: 6px; margin: 4px; border: 1px solid #8da1b4; border-radius: 5px; line-height: 60%"><p style="margin-bottom: 0px">Resource ClinicalUseDefinition &quot;36fe191e-1b9c-11ee-be56-0242ac120002&quot; </p></div><p><b>identifier</b>: id: IT942ZTH98 (use: OFFICIAL)</p><p><b>type</b>: interaction</p><p><b>subject</b>: </p><ul><li><a href="#MedicinalProductDefinition_mp025mg">See above (MedicinalProductDefinition/mp025mg)</a></li><li><a href="#MedicinalProductDefinition_mp1mg">See above (MedicinalProductDefinition/mp1mg)</a></li></ul><blockquote><p><b>interaction</b></p><h3>Interactants</h3><table class="grid"><tr><td style="display: none">-</td><td><b>Item[x]</b></td></tr><tr><td style="display: none">*</td><td>Curcumin <span style="background: LightGoldenRodYellow; margin: 4px; border: 1px solid khaki"> (beta#IT942ZTH98)</span></td></tr></table></blockquote></div>
        </text>
        <identifier>
          <use value="official"/>
          <system value="https://gsrs.ncats.nih.gov/ginas/app/beta"/>
          <value value="IT942ZTH98"/>
        </identifier>
        <type value="interaction"/>
        <subject>
          <reference value="MedicinalProductDefinition/mp025mg"/>
        </subject>
        <subject>
          <reference value="MedicinalProductDefinition/mp1mg"/>
        </subject>
        <interaction>
          <interactant>
            <itemCodeableConcept>
              <coding>
                <system value="https://gsrs.ncats.nih.gov/ginas/app/beta"/>
                <code value="IT942ZTH98"/>
                <display value="Curcumin"/>
              </coding>
            </itemCodeableConcept>
          </interactant>
        </interaction>
      </ClinicalUseDefinition>
    </resource>
  </entry>
  <entry>
    <fullUrl value="http://hl7.eu/fhir/ig/gravitate-health/ClinicalUseDefinition/c579a16e-deaf-47b7-a9ba-19b0f2396e0f"/>
    <resource>
      <ClinicalUseDefinition>
        <id value="c579a16e-deaf-47b7-a9ba-19b0f2396e0f"/>
        <text>
          <status value="generated"/><div xmlns="http://www.w3.org/1999/xhtml"><p><b>Generated Narrative: ClinicalUseDefinition</b><a name="c579a16e-deaf-47b7-a9ba-19b0f2396e0f"> </a></p><div style="display: inline-block; background-color: #d9e0e7; padding: 6px; margin: 4px; border: 1px solid #8da1b4; border-radius: 5px; line-height: 60%"><p style="margin-bottom: 0px">Resource ClinicalUseDefinition &quot;c579a16e-deaf-47b7-a9ba-19b0f2396e0f&quot; </p></div><p><b>identifier</b>: id: 33CM23913M (use: OFFICIAL)</p><p><b>type</b>: interaction</p><p><b>subject</b>: </p><ul><li><a href="#MedicinalProductDefinition_mp025mg">See above (MedicinalProductDefinition/mp025mg)</a></li><li><a href="#MedicinalProductDefinition_mp1mg">See above (MedicinalProductDefinition/mp1mg)</a></li></ul><blockquote><p><b>interaction</b></p><h3>Interactants</h3><table class="grid"><tr><td style="display: none">-</td><td><b>Item[x]</b></td></tr><tr><td style="display: none">*</td><td>Carbamazepine <span style="background: LightGoldenRodYellow; margin: 4px; border: 1px solid khaki"> (beta#33CM23913M)</span></td></tr></table></blockquote></div>
        </text>
        <identifier>
          <use value="official"/>
          <system value="https://gsrs.ncats.nih.gov/ginas/app/beta"/>
          <value value="33CM23913M"/>
        </identifier>
        <type value="interaction"/>
        <subject>
          <reference value="MedicinalProductDefinition/mp025mg"/>
        </subject>
        <subject>
          <reference value="MedicinalProductDefinition/mp1mg"/>
        </subject>
        <interaction>
          <interactant>
            <itemCodeableConcept>
              <coding>
                <system value="https://gsrs.ncats.nih.gov/ginas/app/beta"/>
                <code value="33CM23913M"/>
                <display value="Carbamazepine"/>
              </coding>
            </itemCodeableConcept>
          </interactant>
        </interaction>
      </ClinicalUseDefinition>
    </resource>
  </entry>
  <entry>
    <fullUrl value="http://hl7.eu/fhir/ig/gravitate-health/ClinicalUseDefinition/323b0573-7a65-4747-a2d4-0077092b1845"/>
    <resource>
      <ClinicalUseDefinition>
        <id value="323b0573-7a65-4747-a2d4-0077092b1845"/>
        <text>
          <status value="generated"/><div xmlns="http://www.w3.org/1999/xhtml"><p><b>Generated Narrative: ClinicalUseDefinition</b><a name="323b0573-7a65-4747-a2d4-0077092b1845"> </a></p><div style="display: inline-block; background-color: #d9e0e7; padding: 6px; margin: 4px; border: 1px solid #8da1b4; border-radius: 5px; line-height: 60%"><p style="margin-bottom: 0px">Resource ClinicalUseDefinition &quot;323b0573-7a65-4747-a2d4-0077092b1845&quot; </p></div><p><b>identifier</b>: id: 6158TKW0C5 (use: OFFICIAL)</p><p><b>type</b>: interaction</p><p><b>subject</b>: </p><ul><li><a href="#MedicinalProductDefinition_mp025mg">See above (MedicinalProductDefinition/mp025mg)</a></li><li><a href="#MedicinalProductDefinition_mp1mg">See above (MedicinalProductDefinition/mp1mg)</a></li></ul><blockquote><p><b>interaction</b></p><h3>Interactants</h3><table class="grid"><tr><td style="display: none">-</td><td><b>Item[x]</b></td></tr><tr><td style="display: none">*</td><td>phenytoin <span style="background: LightGoldenRodYellow; margin: 4px; border: 1px solid khaki"> (beta#6158TKW0C5)</span></td></tr></table></blockquote></div>
        </text>
        <identifier>
          <use value="official"/>
          <system value="https://gsrs.ncats.nih.gov/ginas/app/beta"/>
          <value value="6158TKW0C5"/>
        </identifier>
        <type value="interaction"/>
        <subject>
          <reference value="MedicinalProductDefinition/mp025mg"/>
        </subject>
        <subject>
          <reference value="MedicinalProductDefinition/mp1mg"/>
        </subject>
        <interaction>
          <interactant>
            <itemCodeableConcept>
              <coding>
                <system value="https://gsrs.ncats.nih.gov/ginas/app/beta"/>
                <code value="6158TKW0C5"/>
                <display value="phenytoin"/>
              </coding>
            </itemCodeableConcept>
          </interactant>
        </interaction>
      </ClinicalUseDefinition>
    </resource>
  </entry>
  <entry>
    <fullUrl value="http://hl7.eu/fhir/ig/gravitate-health/ClinicalUseDefinition/e66ad89e-0f85-48f0-833f-dbf95ea270af"/>
    <resource>
      <ClinicalUseDefinition>
        <id value="e66ad89e-0f85-48f0-833f-dbf95ea270af"/>
        <text>
          <status value="generated"/><div xmlns="http://www.w3.org/1999/xhtml"><p><b>Generated Narrative: ClinicalUseDefinition</b><a name="e66ad89e-0f85-48f0-833f-dbf95ea270af"> </a></p><div style="display: inline-block; background-color: #d9e0e7; padding: 6px; margin: 4px; border: 1px solid #8da1b4; border-radius: 5px; line-height: 60%"><p style="margin-bottom: 0px">Resource ClinicalUseDefinition &quot;e66ad89e-0f85-48f0-833f-dbf95ea270af&quot; </p></div><p><b>identifier</b>: id: UFH8805FKA (use: OFFICIAL)</p><p><b>type</b>: interaction</p><p><b>subject</b>: </p><ul><li><a href="#MedicinalProductDefinition_mp025mg">See above (MedicinalProductDefinition/mp025mg)</a></li><li><a href="#MedicinalProductDefinition_mp1mg">See above (MedicinalProductDefinition/mp1mg)</a></li></ul><blockquote><p><b>interaction</b></p><h3>Interactants</h3><table class="grid"><tr><td style="display: none">-</td><td><b>Item[x]</b></td></tr><tr><td style="display: none">*</td><td>St. John’s wort (Hypericum perforatum) <span style="background: LightGoldenRodYellow; margin: 4px; border: 1px solid khaki"> (beta#UFH8805FKA)</span></td></tr></table></blockquote></div>
        </text>
        <identifier>
          <use value="official"/>
          <system value="https://gsrs.ncats.nih.gov/ginas/app/beta"/>
          <value value="UFH8805FKA"/>
        </identifier>
        <type value="interaction"/>
        <subject>
          <reference value="MedicinalProductDefinition/mp025mg"/>
        </subject>
        <subject>
          <reference value="MedicinalProductDefinition/mp1mg"/>
        </subject>
        <interaction>
          <interactant>
            <itemCodeableConcept>
              <coding>
                <system value="https://gsrs.ncats.nih.gov/ginas/app/beta"/>
                <code value="UFH8805FKA"/>
                <display value="St. John’s wort (Hypericum perforatum)"/>
              </coding>
            </itemCodeableConcept>
          </interactant>
        </interaction>
      </ClinicalUseDefinition>
    </resource>
  </entry>
  <entry>
    <fullUrl value="http://hl7.eu/fhir/ig/gravitate-health/ClinicalUseDefinition/976b30de-f1a2-4d9c-9351-c4087206cbf1"/>
    <resource>
      <ClinicalUseDefinition>
        <id value="976b30de-f1a2-4d9c-9351-c4087206cbf1"/>
        <text>
          <status value="generated"/><div xmlns="http://www.w3.org/1999/xhtml"><p><b>Generated Narrative: ClinicalUseDefinition</b><a name="976b30de-f1a2-4d9c-9351-c4087206cbf1"> </a></p><div style="display: inline-block; background-color: #d9e0e7; padding: 6px; margin: 4px; border: 1px solid #8da1b4; border-radius: 5px; line-height: 60%"><p style="margin-bottom: 0px">Resource ClinicalUseDefinition &quot;976b30de-f1a2-4d9c-9351-c4087206cbf1&quot; </p></div><p><b>identifier</b>: id: 856YO1Z64F (use: OFFICIAL)</p><p><b>type</b>: interaction</p><p><b>subject</b>: </p><ul><li><a href="#MedicinalProductDefinition_mp025mg">See above (MedicinalProductDefinition/mp025mg)</a></li><li><a href="#MedicinalProductDefinition_mp1mg">See above (MedicinalProductDefinition/mp1mg)</a></li></ul><blockquote><p><b>interaction</b></p><h3>Interactants</h3><table class="grid"><tr><td style="display: none">-</td><td><b>Item[x]</b></td></tr><tr><td style="display: none">*</td><td>turmeric root <span style="background: LightGoldenRodYellow; margin: 4px; border: 1px solid khaki"> (beta#856YO1Z64F)</span></td></tr></table></blockquote></div>
        </text>
        <identifier>
          <use value="official"/>
          <system value="https://gsrs.ncats.nih.gov/ginas/app/beta"/>
          <value value="856YO1Z64F"/>
        </identifier>
        <type value="interaction"/>
        <subject>
          <reference value="MedicinalProductDefinition/mp025mg"/>
        </subject>
        <subject>
          <reference value="MedicinalProductDefinition/mp1mg"/>
        </subject>
        <interaction>
          <interactant>
            <itemCodeableConcept>
              <coding>
                <system value="https://gsrs.ncats.nih.gov/ginas/app/beta"/>
                <code value="856YO1Z64F"/>
                <display value="turmeric root"/>
              </coding>
            </itemCodeableConcept>
          </interactant>
        </interaction>
      </ClinicalUseDefinition>
    </resource>
  </entry>
</Bundle>