{
  "resourceType" : "Bundle",
  "id" : "bundlepackageleaflet-en-37d610f9c96d541562699215b0864126",
  "meta" : {
    "profile" : ["http://hl7.org/fhir/uv/emedicinal-product-info/StructureDefinition/Bundle-uv-epi"]
  },
  "language" : "en",
  "identifier" : {
    "system" : "https://www.gravitatehealth.eu/sid/doc",
    "value" : "EU/1/98/071/004"
  },
  "type" : "document",
  "timestamp" : "2023-06-27T10:09:22Z",
  "entry" : [{
    "fullUrl" : "http://hl7.eu/fhir/ig/gravitate-health/Composition/composition-en-896c7badf9740db2053855cd4e4d6666",
    "resource" : {
      "resourceType" : "Composition",
      "id" : "composition-en-896c7badf9740db2053855cd4e4d6666",
      "meta" : {
        "profile" : ["http://hl7.org/fhir/uv/emedicinal-product-info/StructureDefinition/Composition-uv-epi"]
      },
      "language" : "en",
      "text" : {
        "status" : "generated",
        "div" : "<div xmlns=\"http://www.w3.org/1999/xhtml\" xml:lang=\"en\" lang=\"en\"><p><b>Generated Narrative: Composition</b><a name=\"composition-en-896c7badf9740db2053855cd4e4d6666\"> </a></p><div style=\"display: inline-block; background-color: #d9e0e7; padding: 6px; margin: 4px; border: 1px solid #8da1b4; border-radius: 5px; line-height: 60%\"><p style=\"margin-bottom: 0px\">Resource Composition &quot;composition-en-896c7badf9740db2053855cd4e4d6666&quot;  (Language &quot;en&quot;) </p><p style=\"margin-bottom: 0px\">Profile: <a href=\"https://build.fhir.org/ig/HL7/emedicinal-product-info//StructureDefinition-Composition-uv-epi.html\">Composition (ePI)</a></p></div><p><b>identifier</b>: id:\u00a0EU/1/13/853/001</p><p><b>status</b>: final</p><p><b>type</b>: Package Leaflet <span style=\"background: LightGoldenRodYellow; margin: 4px; border: 1px solid khaki\"> (#100000155538)</span></p><p><b>category</b>: Raw <span style=\"background: LightGoldenRodYellow; margin: 4px; border: 1px solid khaki\"> (<a href=\"CodeSystem-epicategory-cs.html\">Category of EPI</a>#R)</span></p><p><b>date</b>: 2022-02-16 13:28:17+0000</p><p><b>author</b>: <a href=\"#Organization_mah-4aaf055c3c7bab96579cd18496b045eb\">See above (Organization/mah-4aaf055c3c7bab96579cd18496b045eb)</a></p><p><b>title</b>: TEST PURPOSES ONLY - Xenical 120mg hard capsules 12 capsules</p><h3>Attesters</h3><table class=\"grid\"><tr><td style=\"display: none\">-</td><td><b>Mode</b></td><td><b>Time</b></td></tr><tr><td style=\"display: none\">*</td><td>Official <span style=\"background: LightGoldenRodYellow; margin: 4px; border: 1px solid khaki\"> (<a href=\"http://hl7.org/fhir/R5/codesystem-composition-attestation-mode.html\">Composition Attestation Mode</a>#official)</span></td><td>2022-02-16 13:28:17+0000</td></tr></table></div>"
      },
      "identifier" : [{
        "system" : "https://spor.ema.europa.eu/rmswi/",
        "value" : "EU/1/13/853/001"
      }],
      "status" : "final",
      "type" : {
        "coding" : [{
          "system" : "https://spor.ema.europa.eu/rmswi/",
          "code" : "100000155538"
        }],
        "text" : "Package Leaflet"
      },
      "category" : [{
        "coding" : [{
          "system" : "http://hl7.eu/fhir/ig/gravitate-health/CodeSystem/epicategory-cs",
          "code" : "R",
          "display" : "Raw"
        }]
      }],
      "subject" : [{
        "reference" : "MedicinalProductDefinition/mpbc60fa1aa0bfe774d11ee13c0c131622"
      }],
      "date" : "2022-02-16T13:28:17Z",
      "author" : [{
        "reference" : "Organization/mah-4aaf055c3c7bab96579cd18496b045eb"
      }],
      "title" : "TEST PURPOSES ONLY - Xenical 120mg hard capsules 12 capsules",
      "attester" : [{
        "mode" : {
          "coding" : [{
            "system" : "http://hl7.org/fhir/composition-attestation-mode",
            "code" : "official"
          }]
        },
        "time" : "2022-02-16T13:28:17Z"
      }],
      "section" : [{
        "title" : "B. Package Leaflet",
        "code" : {
          "coding" : [{
            "system" : "https://spor.ema.europa.eu/rmswi/",
            "code" : "100000155538"
          }],
          "text" : "B. PACKAGE LEAFLET"
        },
        "text" : {
          "status" : "additional",
          "div" : "<div xmlns=\"http://www.w3.org/1999/xhtml\">unavailable</div>"
        },
        "emptyReason" : {
          "coding" : [{
            "system" : "http://terminology.hl7.org/CodeSystem/list-empty-reason",
            "code" : "unavailable"
          }]
        },
        "section" : [{
          "title" : "Package leaflet: Information for the user",
          "code" : {
            "coding" : [{
              "system" : "https://spor.ema.europa.eu/rmswi/",
              "code" : "100000155538"
            }],
            "text" : "Package leaflet: Information for the user"
          },
          "text" : {
            "status" : "additional",
            "div" : "<div xmlns=\"http://www.w3.org/1999/xhtml\"><p>Xenical 120mg hard capsules</p><p>Orlistat</p><p>Read all of this leaflet carefully before you start taking this medicine because it contains important information for you.</p><ul><li>Keep this leaflet. You may need to read it again.</li><li>If you have any further questions, please ask your doctor or your pharmacist.</li><li>This medicine has been prescribed for you only. Do not pass it on to others. It may harm them, even if their signs of illness are the same as yours.</li><li>If you get any of the side effects, talk to your doctor or pharmacist. This includes any possible side effects not listed in this leaflet. See section 4.</li></ul></div>"
          }
        },
        {
          "title" : "What is in this leaflet",
          "code" : {
            "coding" : [{
              "system" : "https://spor.ema.europa.eu/rmswi/",
              "code" : "100000155538"
            }],
            "text" : "What is in this leaflet"
          },
          "text" : {
            "status" : "additional",
            "div" : "<div xmlns=\"http://www.w3.org/1999/xhtml\"><p>What is in this leaflet:</p><ol><li>What Xenical is and what it is used for</li><li>What you need to know before you take Xenical 3. How to take Xenical</li><li>Possible side effects</li><li>How to store Xenical</li><li>Contents of the pack and other information</li></ol></div>"
          }
        },
        {
          "title" : "1. What Xenical 120mg hard capsules 12 capsules is and what it is used for",
          "code" : {
            "coding" : [{
              "system" : "https://spor.ema.europa.eu/rmswi/",
              "code" : "100000155538"
            }],
            "text" : "1. What Xenical 120mg hard capsules 12 capsules is and what it is used for"
          },
          "text" : {
            "status" : "additional",
            "div" : "<div xmlns=\"http://www.w3.org/1999/xhtml\"><p>Xenical is a medicine used to treat obesity. It works in your digestive system to block about one-third of the fat in the food you eat from being digested. Xenical attaches to the enzymes in your digestive system (lipases) and blocks them from breaking down some of the fat you have eaten during your meal. The undigested fat cannot be absorbed and is eliminated by your body.</p><p>Xenical is indicated in the treatment of obesity in conjunction with a low calorie intake diet.</p></div>"
          }
        },
        {
          "title" : "2. What you need to know before you take Xenical 120mg hard capsules 12 capsules",
          "code" : {
            "coding" : [{
              "system" : "https://spor.ema.europa.eu/rmswi/",
              "code" : "100000155538"
            }],
            "text" : "2. What you need to know before you take Xenical 120mg hard capsules 12 capsules"
          },
          "text" : {
            "status" : "additional",
            "div" : "<div xmlns=\"http://www.w3.org/1999/xhtml\"><p><strong>Do not take XENICAL</strong></p><ul><li>if you are allergic (hypersensitive) to orlistat or to any of the other ingredients of Xenical,</li><li>if you have chronic malabsorption syndrome (insufficient absorption of nutrients from alimentary tract),</li><li>if you have cholestasis (liver disorder)</li><li>if you are breast-feeding</li></ul><p><strong>Warnings and precautions</strong></p><p>Weight loss may also affect the dose of medicines taken for other conditions (e.g. high cholesterol or diabetes). Be sure to discuss these and other medicines you may be taking with your doctor. Losing weight may mean you need adjustments to the dose of these medicines.</p><p>To gain the maximum benefit from Xenical you should follow the nutrition program recommended to you by your doctor. As with any weight-control program, over-consumption of fat and calories may reduce any weight loss effect.</p><p>This medicine can cause harmless changes in your bowel habits, such as fatty or oily stools, due to the elimination of undigested fat in your faeces. The possibility of this happening may increase if Xenical is taken with a diet high in fat. In addition your daily intake of fat should be distributed evenly over three main meals because if Xenical is taken with a meal very high in fat, the possibility of gastrointestinal effects may increase.</p><p>The use of an additional contraceptive method is recommended to prevent possible failure of oral contraception that could occur in case of severe diarrhoea.</p><p>The use of orlistat may be associated with renal stones in patients suffering from chronic kidney disease. Inform your doctor whether you suffer from problems with your kidney.</p><p>This medicine contains less than 1 mmol sodium (23 mg) per capsule, that is to say essentially ‘sodium-free’.</p><p><strong>Children</strong></p><p>Xenical is not intended to be used in children.</p><p><strong>Other medicines and Xenical</strong></p><p>Please inform your doctor or pharmacist if you are taking or have recently taken any other medicines, even those not prescribed.</p><p>This is important as using more than one medicine at the same time can strengthen or weaken the effects of the medicines.</p><p>Xenical may modify the activity of</p><ul><li>Anticoagulant drugs (e.g. warfarin). Your doctor may need to monitor your blood coagulation.</li><li>Ciclosporin. Co-administration with ciclosporin is not recommended. Your doctor may need to monitor your ciclosporin blood levels more frequently than usual.</li><li>Iodine salts and/or levothyroxine. Cases of hypothyroidism and/or reduced control of hypothyroidism may occur.</li><li>Amiodarone. You may ask your doctor for advice.</li><li>Medicines to treat HIV .</li><li>Medicines for depression, psychiatric disorders or anxiousness</li></ul><p>Xenical reduces the absorption of supplements of some fat soluble nutrients, particularly beta-carotene and vitamin E. You should therefore follow your doctor’s advice in taking a well balanced diet rich in fruit and vegetables. Your doctor may suggest you take a multivitamin supplement.</p><p>Orlistat may unbalance an anticonvulsant treatment, by decreasing the absorption of antiepileptic drugs, thus leading to convulsions. Please contact your doctor if you think that the frequency and/or severity of the convulsions have changed when taking Xenical together with antiepileptic drugs.</p><p>Xenical is not recommended for people taking acarbose (an anti-diabetic drug used to treat type 2 diabetes mellitus).</p><p><strong>Xenical with food and drink</strong></p><p>Xenical can be taken immediately before, during a meal or up to one hour after a meal. The capsule should be swallowed with water.</p><p><strong>Pregnancy and breast-feeding</strong> Taking Xenical during pregnancy is not recommended. You must not breast-feed your infant during treatment with Xenical as it is not known whether Xenical passes into human milk.</p><p><strong>Driving and using machines</strong> Xenical has no known effect on your ability to drive a car or operate machinery.</p></div>"
          }
        },
        {
          "title" : "3. How to take Xenical 120mg hard capsules 12 capsules",
          "code" : {
            "coding" : [{
              "system" : "https://spor.ema.europa.eu/rmswi/",
              "code" : "100000155538"
            }],
            "text" : "3. How to take Xenical 120mg hard capsules 12 capsules"
          },
          "text" : {
            "status" : "additional",
            "div" : "<div xmlns=\"http://www.w3.org/1999/xhtml\"><p>Always take Xenical exactly as your doctor has told you. You should check with your doctor or pharmacist if you are not sure. The usual dose of Xenical is one 120 mg capsule taken with each of the three main meals per day. It can be taken immediately before, during a meal or up to one hour after a meal. The capsule should be swallowed with water.</p><p>Xenical should be taken with a well-balanced, calorie controlled diet that is rich in fruit and vegetables and contains an average of 30 % of the calories from fat. Your daily intake of fat, carbohydrate and protein should be distributed over three meals. This means you will usually take one capsule at breakfast time, one capsule at lunch time and one capsule at dinner time. To gain optimal benefit, avoid the intake of food containing fat between meals, such as biscuits, chocolate and savoury snacks.</p><p>Xenical only works in the presence of dietary fat. Therefore, if you miss a main meal or if you have a meal containing no fat, Xenical need not be taken.</p><p>Tell your doctor if, for any reason, you have not taken your medicine exactly as prescribed. Otherwise, your doctor may think that it was not effective or well tolerated and may change your treatment unnecessarily.</p><p>Your doctor will discontinue the treatment with Xenical after 12 weeks if you have not lost at least 5 % of your body weight as measured at the start of treatment with Xenical.</p><p>Xenical has been studied in long-term clinical studies of up to 4 years duration.</p><p><strong>If you take more XENICAL than you should</strong></p><p>If you take more capsules than you have been told to take, or if someone else accidentally takes your medicine, contact a doctor, pharmacist or hospital as you may need medical attention.</p><p><strong>If you forget to take XENICAL</strong></p><p>If you forget to take your medicine at any time, take it as soon as you remember provided this is within one hour of your last meal, then continue to take it at the usual times. Do not take a double dose. If you have missed several doses, please inform your doctor and follow the advice given to you. Do not change the prescribed dose yourself unless your doctor tells you to.</p><p>If you have further questions on the use of this medicine, ask your doctor or pharmacist.</p></div>"
          }
        },
        {
          "title" : "4. Possible side effects",
          "code" : {
            "coding" : [{
              "system" : "https://spor.ema.europa.eu/rmswi/",
              "code" : "100000155538"
            }],
            "text" : "4. Possible side effects"
          },
          "text" : {
            "status" : "additional",
            "div" : "<div xmlns=\"http://www.w3.org/1999/xhtml\"><p>Like all medicines, Xenical can cause side effects, although not everybody gets them.</p><p>Tell your doctor or pharmacist as soon as possible if you do not feel well while you are taking Xenical.</p><p>The majority of unwanted effects related to the use of Xenical result from its local action in your digestive system. These symptoms are generally mild, occur at the beginning of treatment and are particularly experienced after meals containing high levels of fat. Normally, these symptoms disappear if you continue treatment and keep to your recommended diet. <strong>Very common side effects (affects more than 1 user in 10)</strong></p><p>Headache, abdominal pain/discomfort, urgent or increased need to open the bowels, flatulence (wind) with discharge, oily discharge, oily or fatty stools, liquid stools, low blood sugar levels (experienced by some people with type 2 diabetes).</p><p><strong>Common side effects (affects 1 to 10 users in 100)</strong></p><p>Rectal pain/discomfort, soft stools, incontinence (stools), bloating (experienced by some people with type 2 diabetes), tooth/gum disorder, irregularity of menstrual cycle, tiredness.</p><p>The following side effects have also been reported but their frequency cannot be estimated from the available data:</p><p>Allergic reactions. The main symptoms are itching, rash, wheals (slightly elevated, itchy skin patches that are paler or redder than surrounding skin), severe difficulty in breathing, nausea, vomiting and feeling unwell. Skin blistering (including blisters that burst). Diverticulitis. Bleeding from the back passage (rectum). Increases in the levels of some liver enzymes may be found in blood tests. Hepatitis (inflammation of the liver). Symptoms can include yellowing skin and eyes, itching, dark coloured urine, stomach pain and liver tenderness (indicated by pain under the front of the rib cage on your right hand side), sometimes with loss of appetite. Stop Xenical if such symptoms occur and tell your doctor. Gallstones. Pancreatitis (inflammation of the pancreas). Oxalate nephropathy (build up of calcium oxalate which may lead to kidney stones). See Chapter 2, take special care with Xenical. Effects on clotting with anti-coagulants.</p><p><strong>Reporting of side effects</strong></p><p>If you get any side effects, talk to your doctor or pharmacist. This includes any possible side effects not listed in this leaflet. You can also report side effects directly via the national reporting system listed in Appendix V*. By reporting side effects you can help provide more information on the safety of this medicine.</p></div>"
          }
        },
        {
          "title" : "5. How to store Xenical 120mg hard capsules 12 capsules",
          "code" : {
            "coding" : [{
              "system" : "https://spor.ema.europa.eu/rmswi/",
              "code" : "100000155538"
            }],
            "text" : "5. How to store Xenical 120mg hard capsules 12 capsules"
          },
          "text" : {
            "status" : "additional",
            "div" : "<div xmlns=\"http://www.w3.org/1999/xhtml\"><p>Keep out of the sight and reach of children</p><p><strong>Blister packs</strong></p><p>Do not use Xenical after the expiry date stated on the carton.</p><p>Do not store above 25 °C.</p><p>Store in original package and keep the blister in the outer carton in order to protect from light and moisture.</p><p><strong>Glass bottles</strong></p><p>Do not use Xenical after the expiry date stated on the bottle. Do not store above 30 °C.</p><p>Keep container tightly closed in order to protect from moisture.</p><p>Medicines should not be disposed via wastewater or household waste. Ask your pharmacist how to dispose of medicines no longer required. These measures will help to protect the environment.</p></div>"
          }
        },
        {
          "title" : "6. Contents of the pack and other information",
          "code" : {
            "coding" : [{
              "system" : "https://spor.ema.europa.eu/rmswi/",
              "code" : "100000155538"
            }],
            "text" : "6. Contents of the pack and other information"
          },
          "text" : {
            "status" : "additional",
            "div" : "<div xmlns=\"http://www.w3.org/1999/xhtml\"><p><strong>What XENICAL contains</strong></p><ul><li>The active substance is orlistat. Each capsule contains 120 mg of orlistat.</li><li>The other ingredients are microcrystalline cellulose (E460), sodium starch glycolate (type A), povidone (E1201), sodium laurilsulfate and talc. The capsule shell consists of gelatine, indigo carmine (E132), titanium dioxide (E171) and edible printing ink.</li></ul><p><strong>What XENICAL looks like and contents of the pack</strong></p><p>Xenical capsules are turquoise with the imprint “XENICAL 120” and are supplied in blister packs and glass bottles, containing 21, 42 and 84 capsules. Not all pack sizes may be marketed.</p><p><strong>Marketing Authorisation Holder</strong> CHEPLAPHARM Arzneimittel GmbH Ziegelhof 24</p><p>17489 Greifswald</p><p>Germany</p><p><strong>Manufacturer</strong> CHEPLAPHARM Arzneimittel GmbH Bahnhofstr. 1a</p><p>17498 Mesekenhagen</p><p>Germany</p><p>or</p><p>CHEPLAPHARM Arzneimittel GmbH Ziegelhof 23-24</p><p>17489 Greifswald</p><p>Germany</p><p>This leaflet was last revised in &lt;{MM/YYYY}&gt; &lt;{month YYYY}&gt;.</p><p>Detailed information on this medicine is available on the European Medicines Agency web site: <a href=\"http://www.ema.europa.eu\">http://www.ema.europa.eu</a></p></div>"
          }
        }]
      }]
    }
  },
  {
    "fullUrl" : "http://hl7.eu/fhir/ig/gravitate-health/Ingredient/ingredient-for-xenical-orlistat",
    "resource" : {
      "resourceType" : "Ingredient",
      "id" : "ingredient-for-xenical-orlistat",
      "meta" : {
        "profile" : ["http://hl7.org/fhir/uv/emedicinal-product-info/StructureDefinition/Ingredient-uv-epi"]
      },
      "text" : {
        "status" : "generated",
        "div" : "<div xmlns=\"http://www.w3.org/1999/xhtml\"><p><b>Generated Narrative: Ingredient</b><a name=\"ingredient-for-xenical-orlistat\"> </a></p><div style=\"display: inline-block; background-color: #d9e0e7; padding: 6px; margin: 4px; border: 1px solid #8da1b4; border-radius: 5px; line-height: 60%\"><p style=\"margin-bottom: 0px\">Resource Ingredient &quot;ingredient-for-xenical-orlistat&quot; </p><p style=\"margin-bottom: 0px\">Profile: <a href=\"https://build.fhir.org/ig/HL7/emedicinal-product-info//StructureDefinition-Ingredient-uv-epi.html\">Ingredient (ePI)</a></p></div><p><b>identifier</b>: id:\u00a095M8R751W8\u00a0(use:\u00a0OFFICIAL)</p><p><b>status</b>: active</p><p><b>for</b>: </p><ul><li><a href=\"#ManufacturedItemDefinition_mid-4fab126d28f65a1084e7b50a23200363\">See above (ManufacturedItemDefinition/mid-4fab126d28f65a1084e7b50a23200363)</a></li><li><a href=\"#MedicinalProductDefinition_mpbc60fa1aa0bfe774d11ee13c0c131622\">See above (MedicinalProductDefinition/mpbc60fa1aa0bfe774d11ee13c0c131622)</a></li><li><a href=\"#AdministrableProductDefinition_ap-4fab126d28f65a1084e7b50a23200363\">See above (AdministrableProductDefinition/ap-4fab126d28f65a1084e7b50a23200363)</a></li></ul><p><b>role</b>: active <span style=\"background: LightGoldenRodYellow; margin: 4px; border: 1px solid khaki\"> (rmswi#72072)</span></p><blockquote><p><b>substance</b></p><h3>Codes</h3><table class=\"grid\"><tr><td style=\"display: none\">-</td><td><b>Concept</b></td></tr><tr><td style=\"display: none\">*</td><td>ORLISTAT <span style=\"background: LightGoldenRodYellow; margin: 4px; border: 1px solid khaki\"> (beta#95M8R751W8)</span></td></tr></table><h3>Strengths</h3><table class=\"grid\"><tr><td style=\"display: none\">-</td><td><b>Presentation[x]</b></td><td><b>Basis</b></td></tr><tr><td style=\"display: none\">*</td><td>120 mg<span style=\"background: LightGoldenRodYellow\"> (Details: UCUM code mg = 'mg')</span></td><td>active ingredient - basis of strength <span style=\"background: LightGoldenRodYellow; margin: 4px; border: 1px solid khaki\"> (<a href=\"http://terminology.hl7.org/5.3.0/CodeSystem-v3-RoleClass.html\">RoleClass</a>#ACTIB)</span></td></tr></table></blockquote></div>"
      },
      "identifier" : {
        "use" : "official",
        "system" : "https://gsrs.ncats.nih.gov/ginas/app/beta",
        "value" : "95M8R751W8"
      },
      "status" : "active",
      "for" : [{
        "reference" : "ManufacturedItemDefinition/mid-4fab126d28f65a1084e7b50a23200363"
      },
      {
        "reference" : "MedicinalProductDefinition/mpbc60fa1aa0bfe774d11ee13c0c131622"
      },
      {
        "reference" : "AdministrableProductDefinition/ap-4fab126d28f65a1084e7b50a23200363"
      }],
      "role" : {
        "coding" : [{
          "system" : "https://spor.ema.europa.eu/rmswi",
          "code" : "72072",
          "display" : "active"
        }]
      },
      "substance" : {
        "code" : {
          "concept" : {
            "coding" : [{
              "system" : "https://gsrs.ncats.nih.gov/ginas/app/beta",
              "code" : "95M8R751W8",
              "display" : "ORLISTAT"
            }]
          }
        },
        "strength" : [{
          "presentationQuantity" : {
            "value" : 120,
            "system" : "http://unitsofmeasure.org",
            "code" : "mg"
          },
          "basis" : {
            "coding" : [{
              "system" : "http://terminology.hl7.org/CodeSystem/v3-RoleClass",
              "code" : "ACTIB",
              "display" : "active ingredient - basis of strength"
            }]
          }
        }]
      }
    }
  },
  {
    "fullUrl" : "http://hl7.eu/fhir/ig/gravitate-health/Ingredient/ingredient-for-xenical-microcrystallinecellulose",
    "resource" : {
      "resourceType" : "Ingredient",
      "id" : "ingredient-for-xenical-microcrystallinecellulose",
      "meta" : {
        "profile" : ["http://hl7.org/fhir/uv/emedicinal-product-info/StructureDefinition/Ingredient-uv-epi"]
      },
      "text" : {
        "status" : "generated",
        "div" : "<div xmlns=\"http://www.w3.org/1999/xhtml\"><p><b>Generated Narrative: Ingredient</b><a name=\"ingredient-for-xenical-microcrystallinecellulose\"> </a></p><div style=\"display: inline-block; background-color: #d9e0e7; padding: 6px; margin: 4px; border: 1px solid #8da1b4; border-radius: 5px; line-height: 60%\"><p style=\"margin-bottom: 0px\">Resource Ingredient &quot;ingredient-for-xenical-microcrystallinecellulose&quot; </p><p style=\"margin-bottom: 0px\">Profile: <a href=\"https://build.fhir.org/ig/HL7/emedicinal-product-info//StructureDefinition-Ingredient-uv-epi.html\">Ingredient (ePI)</a></p></div><p><b>identifier</b>: id:\u00a0OP1R32D61U\u00a0(use:\u00a0OFFICIAL)</p><p><b>status</b>: active</p><p><b>for</b>: </p><ul><li><a href=\"#ManufacturedItemDefinition_mid-4fab126d28f65a1084e7b50a23200363\">See above (ManufacturedItemDefinition/mid-4fab126d28f65a1084e7b50a23200363)</a></li><li><a href=\"#MedicinalProductDefinition_mpbc60fa1aa0bfe774d11ee13c0c131622\">See above (MedicinalProductDefinition/mpbc60fa1aa0bfe774d11ee13c0c131622)</a></li><li><a href=\"#AdministrableProductDefinition_ap-4fab126d28f65a1084e7b50a23200363\">See above (AdministrableProductDefinition/ap-4fab126d28f65a1084e7b50a23200363)</a></li></ul><p><b>role</b>: Excipient <span style=\"background: LightGoldenRodYellow; margin: 4px; border: 1px solid khaki\"> (rmswi#100000072082)</span></p><blockquote><p><b>substance</b></p><h3>Codes</h3><table class=\"grid\"><tr><td style=\"display: none\">-</td><td><b>Concept</b></td></tr><tr><td style=\"display: none\">*</td><td>MICROCRYSTALLINE CELLULOSE <span style=\"background: LightGoldenRodYellow; margin: 4px; border: 1px solid khaki\"> (beta#OP1R32D61U)</span></td></tr></table></blockquote></div>"
      },
      "identifier" : {
        "use" : "official",
        "system" : "https://gsrs.ncats.nih.gov/ginas/app/beta",
        "value" : "OP1R32D61U"
      },
      "status" : "active",
      "for" : [{
        "reference" : "ManufacturedItemDefinition/mid-4fab126d28f65a1084e7b50a23200363"
      },
      {
        "reference" : "MedicinalProductDefinition/mpbc60fa1aa0bfe774d11ee13c0c131622"
      },
      {
        "reference" : "AdministrableProductDefinition/ap-4fab126d28f65a1084e7b50a23200363"
      }],
      "role" : {
        "coding" : [{
          "system" : "https://spor.ema.europa.eu/rmswi",
          "code" : "100000072082",
          "display" : "Excipient"
        }]
      },
      "substance" : {
        "code" : {
          "concept" : {
            "coding" : [{
              "system" : "https://gsrs.ncats.nih.gov/ginas/app/beta",
              "code" : "OP1R32D61U",
              "display" : "MICROCRYSTALLINE CELLULOSE"
            }]
          }
        }
      }
    }
  },
  {
    "fullUrl" : "http://hl7.eu/fhir/ig/gravitate-health/Ingredient/ingredient-for-xenical-sodiumstarchglycolatetypea",
    "resource" : {
      "resourceType" : "Ingredient",
      "id" : "ingredient-for-xenical-sodiumstarchglycolatetypea",
      "meta" : {
        "profile" : ["http://hl7.org/fhir/uv/emedicinal-product-info/StructureDefinition/Ingredient-uv-epi"]
      },
      "text" : {
        "status" : "generated",
        "div" : "<div xmlns=\"http://www.w3.org/1999/xhtml\"><p><b>Generated Narrative: Ingredient</b><a name=\"ingredient-for-xenical-sodiumstarchglycolatetypea\"> </a></p><div style=\"display: inline-block; background-color: #d9e0e7; padding: 6px; margin: 4px; border: 1px solid #8da1b4; border-radius: 5px; line-height: 60%\"><p style=\"margin-bottom: 0px\">Resource Ingredient &quot;ingredient-for-xenical-sodiumstarchglycolatetypea&quot; </p><p style=\"margin-bottom: 0px\">Profile: <a href=\"https://build.fhir.org/ig/HL7/emedicinal-product-info//StructureDefinition-Ingredient-uv-epi.html\">Ingredient (ePI)</a></p></div><p><b>identifier</b>: id:\u00a0H8AV0SQX4D\u00a0(use:\u00a0OFFICIAL)</p><p><b>status</b>: active</p><p><b>for</b>: </p><ul><li><a href=\"#ManufacturedItemDefinition_mid-4fab126d28f65a1084e7b50a23200363\">See above (ManufacturedItemDefinition/mid-4fab126d28f65a1084e7b50a23200363)</a></li><li><a href=\"#MedicinalProductDefinition_mpbc60fa1aa0bfe774d11ee13c0c131622\">See above (MedicinalProductDefinition/mpbc60fa1aa0bfe774d11ee13c0c131622)</a></li><li><a href=\"#AdministrableProductDefinition_ap-4fab126d28f65a1084e7b50a23200363\">See above (AdministrableProductDefinition/ap-4fab126d28f65a1084e7b50a23200363)</a></li></ul><p><b>role</b>: Excipient <span style=\"background: LightGoldenRodYellow; margin: 4px; border: 1px solid khaki\"> (rmswi#100000072082)</span></p><blockquote><p><b>substance</b></p><h3>Codes</h3><table class=\"grid\"><tr><td style=\"display: none\">-</td><td><b>Concept</b></td></tr><tr><td style=\"display: none\">*</td><td>SODIUM STARCH GLYCOLATE TYPE A <span style=\"background: LightGoldenRodYellow; margin: 4px; border: 1px solid khaki\"> (beta#H8AV0SQX4D)</span></td></tr></table></blockquote></div>"
      },
      "identifier" : {
        "use" : "official",
        "system" : "https://gsrs.ncats.nih.gov/ginas/app/beta",
        "value" : "H8AV0SQX4D"
      },
      "status" : "active",
      "for" : [{
        "reference" : "ManufacturedItemDefinition/mid-4fab126d28f65a1084e7b50a23200363"
      },
      {
        "reference" : "MedicinalProductDefinition/mpbc60fa1aa0bfe774d11ee13c0c131622"
      },
      {
        "reference" : "AdministrableProductDefinition/ap-4fab126d28f65a1084e7b50a23200363"
      }],
      "role" : {
        "coding" : [{
          "system" : "https://spor.ema.europa.eu/rmswi",
          "code" : "100000072082",
          "display" : "Excipient"
        }]
      },
      "substance" : {
        "code" : {
          "concept" : {
            "coding" : [{
              "system" : "https://gsrs.ncats.nih.gov/ginas/app/beta",
              "code" : "H8AV0SQX4D",
              "display" : "SODIUM STARCH GLYCOLATE TYPE A"
            }]
          }
        }
      }
    }
  },
  {
    "fullUrl" : "http://hl7.eu/fhir/ig/gravitate-health/Ingredient/ingredient-for-xenical-povidoneunspecified",
    "resource" : {
      "resourceType" : "Ingredient",
      "id" : "ingredient-for-xenical-povidoneunspecified",
      "meta" : {
        "profile" : ["http://hl7.org/fhir/uv/emedicinal-product-info/StructureDefinition/Ingredient-uv-epi"]
      },
      "text" : {
        "status" : "generated",
        "div" : "<div xmlns=\"http://www.w3.org/1999/xhtml\"><p><b>Generated Narrative: Ingredient</b><a name=\"ingredient-for-xenical-povidoneunspecified\"> </a></p><div style=\"display: inline-block; background-color: #d9e0e7; padding: 6px; margin: 4px; border: 1px solid #8da1b4; border-radius: 5px; line-height: 60%\"><p style=\"margin-bottom: 0px\">Resource Ingredient &quot;ingredient-for-xenical-povidoneunspecified&quot; </p><p style=\"margin-bottom: 0px\">Profile: <a href=\"https://build.fhir.org/ig/HL7/emedicinal-product-info//StructureDefinition-Ingredient-uv-epi.html\">Ingredient (ePI)</a></p></div><p><b>identifier</b>: id:\u00a0FZ989GH94E\u00a0(use:\u00a0OFFICIAL)</p><p><b>status</b>: active</p><p><b>for</b>: </p><ul><li><a href=\"#ManufacturedItemDefinition_mid-4fab126d28f65a1084e7b50a23200363\">See above (ManufacturedItemDefinition/mid-4fab126d28f65a1084e7b50a23200363)</a></li><li><a href=\"#MedicinalProductDefinition_mpbc60fa1aa0bfe774d11ee13c0c131622\">See above (MedicinalProductDefinition/mpbc60fa1aa0bfe774d11ee13c0c131622)</a></li><li><a href=\"#AdministrableProductDefinition_ap-4fab126d28f65a1084e7b50a23200363\">See above (AdministrableProductDefinition/ap-4fab126d28f65a1084e7b50a23200363)</a></li></ul><p><b>role</b>: Excipient <span style=\"background: LightGoldenRodYellow; margin: 4px; border: 1px solid khaki\"> (rmswi#100000072082)</span></p><blockquote><p><b>substance</b></p><h3>Codes</h3><table class=\"grid\"><tr><td style=\"display: none\">-</td><td><b>Concept</b></td></tr><tr><td style=\"display: none\">*</td><td>POVIDONE, UNSPECIFIED <span style=\"background: LightGoldenRodYellow; margin: 4px; border: 1px solid khaki\"> (beta#FZ989GH94E)</span></td></tr></table></blockquote></div>"
      },
      "identifier" : {
        "use" : "official",
        "system" : "https://gsrs.ncats.nih.gov/ginas/app/beta",
        "value" : "FZ989GH94E"
      },
      "status" : "active",
      "for" : [{
        "reference" : "ManufacturedItemDefinition/mid-4fab126d28f65a1084e7b50a23200363"
      },
      {
        "reference" : "MedicinalProductDefinition/mpbc60fa1aa0bfe774d11ee13c0c131622"
      },
      {
        "reference" : "AdministrableProductDefinition/ap-4fab126d28f65a1084e7b50a23200363"
      }],
      "role" : {
        "coding" : [{
          "system" : "https://spor.ema.europa.eu/rmswi",
          "code" : "100000072082",
          "display" : "Excipient"
        }]
      },
      "substance" : {
        "code" : {
          "concept" : {
            "coding" : [{
              "system" : "https://gsrs.ncats.nih.gov/ginas/app/beta",
              "code" : "FZ989GH94E",
              "display" : "POVIDONE, UNSPECIFIED"
            }]
          }
        }
      }
    }
  },
  {
    "fullUrl" : "http://hl7.eu/fhir/ig/gravitate-health/Ingredient/ingredient-for-xenical-sodiumlaurylsulfate",
    "resource" : {
      "resourceType" : "Ingredient",
      "id" : "ingredient-for-xenical-sodiumlaurylsulfate",
      "meta" : {
        "profile" : ["http://hl7.org/fhir/uv/emedicinal-product-info/StructureDefinition/Ingredient-uv-epi"]
      },
      "text" : {
        "status" : "generated",
        "div" : "<div xmlns=\"http://www.w3.org/1999/xhtml\"><p><b>Generated Narrative: Ingredient</b><a name=\"ingredient-for-xenical-sodiumlaurylsulfate\"> </a></p><div style=\"display: inline-block; background-color: #d9e0e7; padding: 6px; margin: 4px; border: 1px solid #8da1b4; border-radius: 5px; line-height: 60%\"><p style=\"margin-bottom: 0px\">Resource Ingredient &quot;ingredient-for-xenical-sodiumlaurylsulfate&quot; </p><p style=\"margin-bottom: 0px\">Profile: <a href=\"https://build.fhir.org/ig/HL7/emedicinal-product-info//StructureDefinition-Ingredient-uv-epi.html\">Ingredient (ePI)</a></p></div><p><b>identifier</b>: id:\u00a0368GB5141J\u00a0(use:\u00a0OFFICIAL)</p><p><b>status</b>: active</p><p><b>for</b>: </p><ul><li><a href=\"#ManufacturedItemDefinition_mid-4fab126d28f65a1084e7b50a23200363\">See above (ManufacturedItemDefinition/mid-4fab126d28f65a1084e7b50a23200363)</a></li><li><a href=\"#MedicinalProductDefinition_mpbc60fa1aa0bfe774d11ee13c0c131622\">See above (MedicinalProductDefinition/mpbc60fa1aa0bfe774d11ee13c0c131622)</a></li><li><a href=\"#AdministrableProductDefinition_ap-4fab126d28f65a1084e7b50a23200363\">See above (AdministrableProductDefinition/ap-4fab126d28f65a1084e7b50a23200363)</a></li></ul><p><b>role</b>: Excipient <span style=\"background: LightGoldenRodYellow; margin: 4px; border: 1px solid khaki\"> (rmswi#100000072082)</span></p><blockquote><p><b>substance</b></p><h3>Codes</h3><table class=\"grid\"><tr><td style=\"display: none\">-</td><td><b>Concept</b></td></tr><tr><td style=\"display: none\">*</td><td>SODIUM LAURYL SULFATE <span style=\"background: LightGoldenRodYellow; margin: 4px; border: 1px solid khaki\"> (beta#368GB5141J)</span></td></tr></table></blockquote></div>"
      },
      "identifier" : {
        "use" : "official",
        "system" : "https://gsrs.ncats.nih.gov/ginas/app/beta",
        "value" : "368GB5141J"
      },
      "status" : "active",
      "for" : [{
        "reference" : "ManufacturedItemDefinition/mid-4fab126d28f65a1084e7b50a23200363"
      },
      {
        "reference" : "MedicinalProductDefinition/mpbc60fa1aa0bfe774d11ee13c0c131622"
      },
      {
        "reference" : "AdministrableProductDefinition/ap-4fab126d28f65a1084e7b50a23200363"
      }],
      "role" : {
        "coding" : [{
          "system" : "https://spor.ema.europa.eu/rmswi",
          "code" : "100000072082",
          "display" : "Excipient"
        }]
      },
      "substance" : {
        "code" : {
          "concept" : {
            "coding" : [{
              "system" : "https://gsrs.ncats.nih.gov/ginas/app/beta",
              "code" : "368GB5141J",
              "display" : "SODIUM LAURYL SULFATE"
            }]
          }
        }
      }
    }
  },
  {
    "fullUrl" : "http://hl7.eu/fhir/ig/gravitate-health/Ingredient/ingredient-for-xenical-gelatinunspecified",
    "resource" : {
      "resourceType" : "Ingredient",
      "id" : "ingredient-for-xenical-gelatinunspecified",
      "meta" : {
        "profile" : ["http://hl7.org/fhir/uv/emedicinal-product-info/StructureDefinition/Ingredient-uv-epi"]
      },
      "text" : {
        "status" : "generated",
        "div" : "<div xmlns=\"http://www.w3.org/1999/xhtml\"><p><b>Generated Narrative: Ingredient</b><a name=\"ingredient-for-xenical-gelatinunspecified\"> </a></p><div style=\"display: inline-block; background-color: #d9e0e7; padding: 6px; margin: 4px; border: 1px solid #8da1b4; border-radius: 5px; line-height: 60%\"><p style=\"margin-bottom: 0px\">Resource Ingredient &quot;ingredient-for-xenical-gelatinunspecified&quot; </p><p style=\"margin-bottom: 0px\">Profile: <a href=\"https://build.fhir.org/ig/HL7/emedicinal-product-info//StructureDefinition-Ingredient-uv-epi.html\">Ingredient (ePI)</a></p></div><p><b>identifier</b>: id:\u00a02G86QN327L\u00a0(use:\u00a0OFFICIAL)</p><p><b>status</b>: active</p><p><b>for</b>: </p><ul><li><a href=\"#ManufacturedItemDefinition_mid-4fab126d28f65a1084e7b50a23200363\">See above (ManufacturedItemDefinition/mid-4fab126d28f65a1084e7b50a23200363)</a></li><li><a href=\"#MedicinalProductDefinition_mpbc60fa1aa0bfe774d11ee13c0c131622\">See above (MedicinalProductDefinition/mpbc60fa1aa0bfe774d11ee13c0c131622)</a></li><li><a href=\"#AdministrableProductDefinition_ap-4fab126d28f65a1084e7b50a23200363\">See above (AdministrableProductDefinition/ap-4fab126d28f65a1084e7b50a23200363)</a></li></ul><p><b>role</b>: Excipient <span style=\"background: LightGoldenRodYellow; margin: 4px; border: 1px solid khaki\"> (rmswi#100000072082)</span></p><blockquote><p><b>substance</b></p><h3>Codes</h3><table class=\"grid\"><tr><td style=\"display: none\">-</td><td><b>Concept</b></td></tr><tr><td style=\"display: none\">*</td><td>GELATIN, UNSPECIFIED <span style=\"background: LightGoldenRodYellow; margin: 4px; border: 1px solid khaki\"> (beta#2G86QN327L)</span></td></tr></table></blockquote></div>"
      },
      "identifier" : {
        "use" : "official",
        "system" : "https://gsrs.ncats.nih.gov/ginas/app/beta",
        "value" : "2G86QN327L"
      },
      "status" : "active",
      "for" : [{
        "reference" : "ManufacturedItemDefinition/mid-4fab126d28f65a1084e7b50a23200363"
      },
      {
        "reference" : "MedicinalProductDefinition/mpbc60fa1aa0bfe774d11ee13c0c131622"
      },
      {
        "reference" : "AdministrableProductDefinition/ap-4fab126d28f65a1084e7b50a23200363"
      }],
      "role" : {
        "coding" : [{
          "system" : "https://spor.ema.europa.eu/rmswi",
          "code" : "100000072082",
          "display" : "Excipient"
        }]
      },
      "substance" : {
        "code" : {
          "concept" : {
            "coding" : [{
              "system" : "https://gsrs.ncats.nih.gov/ginas/app/beta",
              "code" : "2G86QN327L",
              "display" : "GELATIN, UNSPECIFIED"
            }]
          }
        }
      }
    }
  },
  {
    "fullUrl" : "http://hl7.eu/fhir/ig/gravitate-health/Ingredient/ingredient-for-xenical-titaniumdioxide",
    "resource" : {
      "resourceType" : "Ingredient",
      "id" : "ingredient-for-xenical-titaniumdioxide",
      "meta" : {
        "profile" : ["http://hl7.org/fhir/uv/emedicinal-product-info/StructureDefinition/Ingredient-uv-epi"]
      },
      "text" : {
        "status" : "generated",
        "div" : "<div xmlns=\"http://www.w3.org/1999/xhtml\"><p><b>Generated Narrative: Ingredient</b><a name=\"ingredient-for-xenical-titaniumdioxide\"> </a></p><div style=\"display: inline-block; background-color: #d9e0e7; padding: 6px; margin: 4px; border: 1px solid #8da1b4; border-radius: 5px; line-height: 60%\"><p style=\"margin-bottom: 0px\">Resource Ingredient &quot;ingredient-for-xenical-titaniumdioxide&quot; </p><p style=\"margin-bottom: 0px\">Profile: <a href=\"https://build.fhir.org/ig/HL7/emedicinal-product-info//StructureDefinition-Ingredient-uv-epi.html\">Ingredient (ePI)</a></p></div><p><b>identifier</b>: id:\u00a015FIX9V2JP\u00a0(use:\u00a0OFFICIAL)</p><p><b>status</b>: active</p><p><b>for</b>: </p><ul><li><a href=\"#ManufacturedItemDefinition_mid-4fab126d28f65a1084e7b50a23200363\">See above (ManufacturedItemDefinition/mid-4fab126d28f65a1084e7b50a23200363)</a></li><li><a href=\"#MedicinalProductDefinition_mpbc60fa1aa0bfe774d11ee13c0c131622\">See above (MedicinalProductDefinition/mpbc60fa1aa0bfe774d11ee13c0c131622)</a></li><li><a href=\"#AdministrableProductDefinition_ap-4fab126d28f65a1084e7b50a23200363\">See above (AdministrableProductDefinition/ap-4fab126d28f65a1084e7b50a23200363)</a></li></ul><p><b>role</b>: Excipient <span style=\"background: LightGoldenRodYellow; margin: 4px; border: 1px solid khaki\"> (rmswi#100000072082)</span></p><blockquote><p><b>substance</b></p><h3>Codes</h3><table class=\"grid\"><tr><td style=\"display: none\">-</td><td><b>Concept</b></td></tr><tr><td style=\"display: none\">*</td><td>TITANIUM DIOXIDE <span style=\"background: LightGoldenRodYellow; margin: 4px; border: 1px solid khaki\"> (beta#15FIX9V2JP)</span></td></tr></table></blockquote></div>"
      },
      "identifier" : {
        "use" : "official",
        "system" : "https://gsrs.ncats.nih.gov/ginas/app/beta",
        "value" : "15FIX9V2JP"
      },
      "status" : "active",
      "for" : [{
        "reference" : "ManufacturedItemDefinition/mid-4fab126d28f65a1084e7b50a23200363"
      },
      {
        "reference" : "MedicinalProductDefinition/mpbc60fa1aa0bfe774d11ee13c0c131622"
      },
      {
        "reference" : "AdministrableProductDefinition/ap-4fab126d28f65a1084e7b50a23200363"
      }],
      "role" : {
        "coding" : [{
          "system" : "https://spor.ema.europa.eu/rmswi",
          "code" : "100000072082",
          "display" : "Excipient"
        }]
      },
      "substance" : {
        "code" : {
          "concept" : {
            "coding" : [{
              "system" : "https://gsrs.ncats.nih.gov/ginas/app/beta",
              "code" : "15FIX9V2JP",
              "display" : "TITANIUM DIOXIDE"
            }]
          }
        }
      }
    }
  },
  {
    "fullUrl" : "http://hl7.eu/fhir/ig/gravitate-health/SubstanceDefinition/substance-orlistat",
    "resource" : {
      "resourceType" : "SubstanceDefinition",
      "id" : "substance-orlistat",
      "meta" : {
        "profile" : ["http://hl7.org/fhir/uv/emedicinal-product-info/StructureDefinition/SubstanceDefinition-uv-epi"]
      },
      "text" : {
        "status" : "generated",
        "div" : "<div xmlns=\"http://www.w3.org/1999/xhtml\"><p><b>Generated Narrative: SubstanceDefinition</b><a name=\"substance-orlistat\"> </a></p><div style=\"display: inline-block; background-color: #d9e0e7; padding: 6px; margin: 4px; border: 1px solid #8da1b4; border-radius: 5px; line-height: 60%\"><p style=\"margin-bottom: 0px\">Resource SubstanceDefinition &quot;substance-orlistat&quot; </p><p style=\"margin-bottom: 0px\">Profile: <a href=\"https://build.fhir.org/ig/HL7/emedicinal-product-info//StructureDefinition-SubstanceDefinition-uv-epi.html\">SubstanceDefinition (ePI)</a></p></div><p><b>identifier</b>: id:\u00a095M8R751W8\u00a0(use:\u00a0OFFICIAL)</p><p><b>version</b>: 1</p><p><b>status</b>: Active <span style=\"background: LightGoldenRodYellow; margin: 4px; border: 1px solid khaki\"> (<a href=\"http://hl7.org/fhir/R5/codesystem-publication-status.html\">PublicationStatus</a>#active)</span></p><p><b>manufacturer</b>: <a href=\"#Organization_mah-4aaf055c3c7bab96579cd18496b045eb\">See above (Organization/mah-4aaf055c3c7bab96579cd18496b045eb)</a></p><h3>MolecularWeights</h3><table class=\"grid\"><tr><td style=\"display: none\">-</td><td><b>Type</b></td><td><b>Amount</b></td></tr><tr><td style=\"display: none\">*</td><td>exact <span style=\"background: LightGoldenRodYellow; margin: 4px; border: 1px solid khaki\"> ()</span></td><td>495.74</td></tr></table><h3>Structures</h3><table class=\"grid\"><tr><td style=\"display: none\">-</td><td><b>MolecularFormula</b></td></tr><tr><td style=\"display: none\">*</td><td>C29H53NO5</td></tr></table><h3>Names</h3><table class=\"grid\"><tr><td style=\"display: none\">-</td><td><b>Name</b></td><td><b>Type</b></td></tr><tr><td style=\"display: none\">*</td><td>L-LEUCINE, N-FORMYL-, 1-((3-HEXYL-4-OXO-2-OXETANYL)METHYL)DODECYL ESTER, (2S-(2.ALPHA.(R*),3.BETA.))-</td><td>Chemical Name <span style=\"background: LightGoldenRodYellow; margin: 4px; border: 1px solid khaki\"> (#x)</span></td></tr></table></div>"
      },
      "identifier" : [{
        "use" : "official",
        "system" : "https://gsrs.ncats.nih.gov/ginas/app/beta/",
        "value" : "95M8R751W8"
      }],
      "version" : "1",
      "status" : {
        "coding" : [{
          "system" : "http://hl7.org/fhir/publication-status",
          "code" : "active"
        }]
      },
      "manufacturer" : [{
        "reference" : "Organization/mah-4aaf055c3c7bab96579cd18496b045eb"
      }],
      "molecularWeight" : [{
        "type" : {
          "text" : "exact"
        },
        "amount" : {
          "value" : 495.74
        }
      }],
      "structure" : {
        "molecularFormula" : "C29H53NO5"
      },
      "name" : [{
        "name" : "L-LEUCINE, N-FORMYL-, 1-((3-HEXYL-4-OXO-2-OXETANYL)METHYL)DODECYL ESTER, (2S-(2.ALPHA.(R*),3.BETA.))-",
        "type" : {
          "coding" : [{
            "system" : "https://gsrs.ncats.nih.gov/ginas/app/beta/",
            "code" : "x",
            "display" : "Chemical Name"
          }]
        }
      }]
    }
  },
  {
    "fullUrl" : "http://hl7.eu/fhir/ig/gravitate-health/AdministrableProductDefinition/ap-4fab126d28f65a1084e7b50a23200363",
    "resource" : {
      "resourceType" : "AdministrableProductDefinition",
      "id" : "ap-4fab126d28f65a1084e7b50a23200363",
      "meta" : {
        "profile" : ["http://hl7.org/fhir/uv/emedicinal-product-info/StructureDefinition/AdministrableProductDefinition-uv-epi"]
      },
      "text" : {
        "status" : "generated",
        "div" : "<div xmlns=\"http://www.w3.org/1999/xhtml\"><p><b>Generated Narrative: AdministrableProductDefinition</b><a name=\"ap-4fab126d28f65a1084e7b50a23200363\"> </a></p><div style=\"display: inline-block; background-color: #d9e0e7; padding: 6px; margin: 4px; border: 1px solid #8da1b4; border-radius: 5px; line-height: 60%\"><p style=\"margin-bottom: 0px\">Resource AdministrableProductDefinition &quot;ap-4fab126d28f65a1084e7b50a23200363&quot; </p><p style=\"margin-bottom: 0px\">Profile: <a href=\"https://build.fhir.org/ig/HL7/emedicinal-product-info//StructureDefinition-AdministrableProductDefinition-uv-epi.html\">AdministrableProductDefinition (ePI)</a></p></div><p><b>identifier</b>: id:\u00a0EU/1/98/071/004</p><p><b>status</b>: active</p><p><b>formOf</b>: <a href=\"#MedicinalProductDefinition_mpbc60fa1aa0bfe774d11ee13c0c131622\">See above (MedicinalProductDefinition/mpbc60fa1aa0bfe774d11ee13c0c131622)</a></p><p><b>administrableDoseForm</b>: Capsule, hard <span style=\"background: LightGoldenRodYellow; margin: 4px; border: 1px solid khaki\"> (rmswi#100000073375)</span></p><p><b>unitOfPresentation</b>: Capsule, hard <span style=\"background: LightGoldenRodYellow; margin: 4px; border: 1px solid khaki\"> (rmswi#100000073375)</span></p><p><b>producedFrom</b>: <a href=\"#ManufacturedItemDefinition_mid-4fab126d28f65a1084e7b50a23200363\">See above (ManufacturedItemDefinition/mid-4fab126d28f65a1084e7b50a23200363)</a></p><blockquote><p><b>routeOfAdministration</b></p><p><b>code</b>: Oral use <span style=\"background: LightGoldenRodYellow; margin: 4px; border: 1px solid khaki\"> (rmswi#100000073619)</span></p><h3>TargetSpecies</h3><table class=\"grid\"><tr><td style=\"display: none\">-</td><td><b>Code</b></td></tr><tr><td style=\"display: none\">*</td><td>Human <span style=\"background: LightGoldenRodYellow; margin: 4px; border: 1px solid khaki\"> (rmswi#100000109093)</span></td></tr></table></blockquote></div>"
      },
      "identifier" : [{
        "system" : "https://spor.ema.europa.eu/pmswi",
        "value" : "EU/1/98/071/004"
      }],
      "status" : "active",
      "formOf" : [{
        "reference" : "MedicinalProductDefinition/mpbc60fa1aa0bfe774d11ee13c0c131622"
      }],
      "administrableDoseForm" : {
        "coding" : [{
          "system" : "https://spor.ema.europa.eu/rmswi",
          "code" : "100000073375",
          "display" : "Capsule, hard"
        }]
      },
      "unitOfPresentation" : {
        "coding" : [{
          "system" : "https://spor.ema.europa.eu/rmswi",
          "code" : "100000073375",
          "display" : "Capsule, hard"
        }]
      },
      "producedFrom" : [{
        "reference" : "ManufacturedItemDefinition/mid-4fab126d28f65a1084e7b50a23200363"
      }],
      "routeOfAdministration" : [{
        "code" : {
          "coding" : [{
            "system" : "https://spor.ema.europa.eu/rmswi",
            "code" : "100000073619",
            "display" : "Oral use"
          }]
        },
        "targetSpecies" : [{
          "code" : {
            "coding" : [{
              "system" : "https://spor.ema.europa.eu/rmswi",
              "code" : "100000109093",
              "display" : "Human"
            }]
          }
        }]
      }]
    }
  },
  {
    "fullUrl" : "http://hl7.eu/fhir/ig/gravitate-health/RegulatedAuthorization/authorization4fab126d28f65a1084e7b50a23200363",
    "resource" : {
      "resourceType" : "RegulatedAuthorization",
      "id" : "authorization4fab126d28f65a1084e7b50a23200363",
      "meta" : {
        "profile" : ["http://hl7.org/fhir/uv/emedicinal-product-info/StructureDefinition/RegulatedAuthorization-uv-epi"]
      },
      "text" : {
        "status" : "generated",
        "div" : "<div xmlns=\"http://www.w3.org/1999/xhtml\"><p><b>Generated Narrative: RegulatedAuthorization</b><a name=\"authorization4fab126d28f65a1084e7b50a23200363\"> </a></p><div style=\"display: inline-block; background-color: #d9e0e7; padding: 6px; margin: 4px; border: 1px solid #8da1b4; border-radius: 5px; line-height: 60%\"><p style=\"margin-bottom: 0px\">Resource RegulatedAuthorization &quot;authorization4fab126d28f65a1084e7b50a23200363&quot; </p><p style=\"margin-bottom: 0px\">Profile: <a href=\"https://build.fhir.org/ig/HL7/emedicinal-product-info//StructureDefinition-RegulatedAuthorization-uv-epi.html\">RegulatedAuthorization (ePI)</a></p></div><p><b>identifier</b>: id:\u00a0EU/1/98/071/004\u00a0(use:\u00a0OFFICIAL)</p><p><b>subject</b>: <a href=\"#MedicinalProductDefinition_mpbc60fa1aa0bfe774d11ee13c0c131622\">See above (MedicinalProductDefinition/mpbc60fa1aa0bfe774d11ee13c0c131622)</a></p><p><b>type</b>: Marketing Authorisation <span style=\"background: LightGoldenRodYellow; margin: 4px; border: 1px solid khaki\"> (rmswi#100000072062)</span></p><p><b>status</b>: Active <span style=\"background: LightGoldenRodYellow; margin: 4px; border: 1px solid khaki\"> (<a href=\"http://hl7.org/fhir/R5/codesystem-publication-status.html\">PublicationStatus</a>#active)</span></p><p><b>statusDate</b>: 2018-06-21</p><p><b>holder</b>: <a href=\"#Organization_mah-4aaf055c3c7bab96579cd18496b045eb\">See above (Organization/mah-4aaf055c3c7bab96579cd18496b045eb)</a></p></div>"
      },
      "identifier" : [{
        "use" : "official",
        "system" : "https://spor.ema.europa.eu/pmswi",
        "value" : "EU/1/98/071/004"
      }],
      "subject" : [{
        "reference" : "MedicinalProductDefinition/mpbc60fa1aa0bfe774d11ee13c0c131622"
      }],
      "type" : {
        "coding" : [{
          "system" : "https://spor.ema.europa.eu/rmswi",
          "code" : "100000072062",
          "display" : "Marketing Authorisation"
        }]
      },
      "status" : {
        "coding" : [{
          "system" : "http://hl7.org/fhir/publication-status",
          "code" : "active",
          "display" : "Active"
        }]
      },
      "statusDate" : "2018-06-21",
      "holder" : {
        "reference" : "Organization/mah-4aaf055c3c7bab96579cd18496b045eb"
      }
    }
  },
  {
    "fullUrl" : "http://hl7.eu/fhir/ig/gravitate-health/Organization/mah-4aaf055c3c7bab96579cd18496b045eb",
    "resource" : {
      "resourceType" : "Organization",
      "id" : "mah-4aaf055c3c7bab96579cd18496b045eb",
      "meta" : {
        "profile" : ["http://hl7.org/fhir/uv/emedicinal-product-info/StructureDefinition/Organization-uv-epi"]
      },
      "text" : {
        "status" : "generated",
        "div" : "<div xmlns=\"http://www.w3.org/1999/xhtml\"><p><b>Generated Narrative: Organization</b><a name=\"mah-4aaf055c3c7bab96579cd18496b045eb\"> </a></p><div style=\"display: inline-block; background-color: #d9e0e7; padding: 6px; margin: 4px; border: 1px solid #8da1b4; border-radius: 5px; line-height: 60%\"><p style=\"margin-bottom: 0px\">Resource Organization &quot;mah-4aaf055c3c7bab96579cd18496b045eb&quot; </p><p style=\"margin-bottom: 0px\">Profile: <a href=\"https://build.fhir.org/ig/HL7/emedicinal-product-info//StructureDefinition-Organization-uv-epi.html\">Organization (ePI)</a></p></div><p><b>identifier</b>: id:\u00a0ORG-100000214\u00a0(use:\u00a0OFFICIAL)</p><p><b>active</b>: true</p><p><b>type</b>: Marketing authorisation holder <span style=\"background: LightGoldenRodYellow; margin: 4px; border: 1px solid khaki\"> (rmswi#220000000034)</span></p><p><b>name</b>: CHEPLAPHARM Arzneimittel GmbH</p><h3>Contacts</h3><table class=\"grid\"><tr><td style=\"display: none\">-</td><td><b>Address</b></td></tr><tr><td style=\"display: none\">*</td><td>Ziegelhof 24 17489 Greifswald Germany Greifswald Germany(WORK)</td></tr></table></div>"
      },
      "identifier" : [{
        "use" : "official",
        "system" : "https://spor.ema.europa.eu/omswi",
        "value" : "ORG-100000214"
      }],
      "active" : true,
      "type" : [{
        "coding" : [{
          "system" : "https://spor.ema.europa.eu/rmswi",
          "code" : "220000000034",
          "display" : "Marketing authorisation holder"
        }]
      }],
      "name" : "CHEPLAPHARM Arzneimittel GmbH",
      "contact" : [{
        "address" : {
          "use" : "work",
          "type" : "physical",
          "text" : "Ziegelhof 24 17489 Greifswald Germany Greifswald Germany",
          "line" : ["Ziegelhof 24 17489 Greifswald Germany"],
          "city" : "Greifswald",
          "postalCode" : "17489",
          "country" : "Germany"
        }
      }]
    }
  },
  {
    "fullUrl" : "http://hl7.eu/fhir/ig/gravitate-health/PackagedProductDefinition/ppd-649bf36725172cd11455d1dcb53f6762",
    "resource" : {
      "resourceType" : "PackagedProductDefinition",
      "id" : "ppd-649bf36725172cd11455d1dcb53f6762",
      "meta" : {
        "profile" : ["http://hl7.org/fhir/uv/emedicinal-product-info/StructureDefinition/PackagedProductDefinition-uv-epi"]
      },
      "text" : {
        "status" : "generated",
        "div" : "<div xmlns=\"http://www.w3.org/1999/xhtml\"><p><b>Generated Narrative: PackagedProductDefinition</b><a name=\"ppd-649bf36725172cd11455d1dcb53f6762\"> </a></p><div style=\"display: inline-block; background-color: #d9e0e7; padding: 6px; margin: 4px; border: 1px solid #8da1b4; border-radius: 5px; line-height: 60%\"><p style=\"margin-bottom: 0px\">Resource PackagedProductDefinition &quot;ppd-649bf36725172cd11455d1dcb53f6762&quot; </p><p style=\"margin-bottom: 0px\">Profile: <a href=\"https://build.fhir.org/ig/HL7/emedicinal-product-info//StructureDefinition-PackagedProductDefinition-uv-epi.html\">PackagedProductDefinition (ePI)</a></p></div><p><b>identifier</b>: id:\u00a0EU/1/98/071/004\u00a0(use:\u00a0OFFICIAL)</p><p><b>name</b>: Xenical 120mg hard capsules 12 capsules</p><p><b>type</b>: Chemical Medicinal Prodcut <span style=\"background: LightGoldenRodYellow; margin: 4px; border: 1px solid khaki\"> (rmswi#100000155527)</span></p><p><b>packageFor</b>: <a href=\"#MedicinalProductDefinition_mpbc60fa1aa0bfe774d11ee13c0c131622\">See above (MedicinalProductDefinition/mpbc60fa1aa0bfe774d11ee13c0c131622)</a></p><p><b>status</b>: Active <span style=\"background: LightGoldenRodYellow; margin: 4px; border: 1px solid khaki\"> (<a href=\"http://hl7.org/fhir/R5/codesystem-publication-status.html\">PublicationStatus</a>#active)</span></p><p><b>statusDate</b>: 2012-02-07 13:28:17+0000</p><p><b>containedItemQuantity</b>: 16 {capsules}<span style=\"background: LightGoldenRodYellow\"> (Details: UCUM code {capsules} = '{capsules}')</span></p><blockquote><p><b>packaging</b></p><p><b>type</b>: Box <span style=\"background: LightGoldenRodYellow; margin: 4px; border: 1px solid khaki\"> (rmswi#100000073498)</span></p><p><b>quantity</b>: 1</p><p><b>material</b>: Cardboard <span style=\"background: LightGoldenRodYellow; margin: 4px; border: 1px solid khaki\"> (rmswi#200000003529)</span></p><blockquote><p><b>packaging</b></p><p><b>identifier</b>: id:\u00a07777</p><p><b>type</b>: Box <span style=\"background: LightGoldenRodYellow; margin: 4px; border: 1px solid khaki\"> (rmswi#100000073498)</span></p><p><b>quantity</b>: 1</p><p><b>material</b>: Cardboard <span style=\"background: LightGoldenRodYellow; margin: 4px; border: 1px solid khaki\"> (rmswi#200000003529)</span></p><blockquote><p><b>containedItem</b></p></blockquote></blockquote></blockquote></div>"
      },
      "identifier" : [{
        "use" : "official",
        "system" : "https://spor.ema.europa.eu/pmswi",
        "value" : "EU/1/98/071/004"
      }],
      "name" : "Xenical 120mg hard capsules 12 capsules",
      "type" : {
        "coding" : [{
          "system" : "https://spor.ema.europa.eu/rmswi",
          "code" : "100000155527",
          "display" : "Chemical Medicinal Prodcut"
        }]
      },
      "packageFor" : [{
        "reference" : "MedicinalProductDefinition/mpbc60fa1aa0bfe774d11ee13c0c131622"
      }],
      "status" : {
        "coding" : [{
          "system" : "http://hl7.org/fhir/publication-status",
          "code" : "active",
          "display" : "Active"
        }]
      },
      "statusDate" : "2012-02-07T13:28:17Z",
      "containedItemQuantity" : [{
        "value" : 16,
        "system" : "http://unitsofmeasure.org",
        "code" : "{capsules}"
      }],
      "packaging" : {
        "type" : {
          "coding" : [{
            "system" : "https://spor.ema.europa.eu/rmswi",
            "code" : "100000073498",
            "display" : "Box"
          }]
        },
        "quantity" : 1,
        "material" : [{
          "coding" : [{
            "system" : "https://spor.ema.europa.eu/rmswi",
            "code" : "200000003529",
            "display" : "Cardboard"
          }]
        }],
        "packaging" : [{
          "identifier" : [{
            "system" : "https://spor.ema.europa.eu/pmswi",
            "value" : "7777"
          }],
          "type" : {
            "coding" : [{
              "system" : "https://spor.ema.europa.eu/rmswi",
              "code" : "100000073498",
              "display" : "Box"
            }]
          },
          "quantity" : 1,
          "material" : [{
            "coding" : [{
              "system" : "https://spor.ema.europa.eu/rmswi",
              "code" : "200000003529",
              "display" : "Cardboard"
            }]
          }],
          "containedItem" : [{
            "item" : {
              "reference" : {
                "reference" : "ManufacturedItemDefinition/mid-4fab126d28f65a1084e7b50a23200363"
              }
            }
          }]
        }]
      }
    }
  },
  {
    "fullUrl" : "http://hl7.eu/fhir/ig/gravitate-health/MedicinalProductDefinition/mpbc60fa1aa0bfe774d11ee13c0c131622",
    "resource" : {
      "resourceType" : "MedicinalProductDefinition",
      "id" : "mpbc60fa1aa0bfe774d11ee13c0c131622",
      "meta" : {
        "profile" : ["http://hl7.org/fhir/uv/emedicinal-product-info/StructureDefinition/MedicinalProductDefinition-uv-epi"]
      },
      "text" : {
        "status" : "generated",
        "div" : "<div xmlns=\"http://www.w3.org/1999/xhtml\"><p><b>Generated Narrative: MedicinalProductDefinition</b><a name=\"mpbc60fa1aa0bfe774d11ee13c0c131622\"> </a></p><div style=\"display: inline-block; background-color: #d9e0e7; padding: 6px; margin: 4px; border: 1px solid #8da1b4; border-radius: 5px; line-height: 60%\"><p style=\"margin-bottom: 0px\">Resource MedicinalProductDefinition &quot;mpbc60fa1aa0bfe774d11ee13c0c131622&quot; </p><p style=\"margin-bottom: 0px\">Profile: <a href=\"https://build.fhir.org/ig/HL7/emedicinal-product-info//StructureDefinition-MedicinalProductDefinition-uv-epi.html\">MedicinalProductDefinition (ePI)</a></p></div><p><b>identifier</b>: id:\u00a0EU/1/98/071/004, id:\u00a00xF79CABF272B6A7EEF104DDDA44E82809</p><p><b>type</b>: Medicinal Product <span style=\"background: LightGoldenRodYellow; margin: 4px; border: 1px solid khaki\"> (<a href=\"http://hl7.org/fhir/R5/codesystem-medicinal-product-type.html\">Medicinal Product Type</a>#MedicinalProduct)</span></p><p><b>domain</b>: Human use <span style=\"background: LightGoldenRodYellow; margin: 4px; border: 1px solid khaki\"> (<a href=\"http://hl7.org/fhir/R5/codesystem-medicinal-product-domain.html\">Medicinal Product Domain</a>#Human)</span></p><p><b>status</b>: active <span style=\"background: LightGoldenRodYellow; margin: 4px; border: 1px solid khaki\"> (<a href=\"http://hl7.org/fhir/R5/codesystem-publication-status.html\">PublicationStatus</a>#active)</span></p><p><b>legalStatusOfSupply</b>: Medicinal product subject to medical prescription <span style=\"background: LightGoldenRodYellow; margin: 4px; border: 1px solid khaki\"> (rmswi#100000072084)</span></p><blockquote><p><b>name</b></p><p><b>productName</b>: Xenical 120mg hard capsules</p><p><b>type</b>: Full name <span style=\"background: LightGoldenRodYellow; margin: 4px; border: 1px solid khaki\"> (220000000000#220000000001)</span></p><blockquote><p><b>part</b></p><p><b>part</b>: Xenical</p><p><b>type</b>: Invented name part <span style=\"background: LightGoldenRodYellow; margin: 4px; border: 1px solid khaki\"> (220000000000#220000000002)</span></p></blockquote><blockquote><p><b>part</b></p><p><b>part</b>: Orlistat</p><p><b>type</b>: Scientific name part <span style=\"background: LightGoldenRodYellow; margin: 4px; border: 1px solid khaki\"> (220000000000#220000000003)</span></p></blockquote><blockquote><p><b>part</b></p><p><b>part</b>: 120mg</p><p><b>type</b>: Strength part <span style=\"background: LightGoldenRodYellow; margin: 4px; border: 1px solid khaki\"> (220000000000#220000000004)</span></p></blockquote><blockquote><p><b>part</b></p><p><b>part</b>: hard capsules</p><p><b>type</b>: Pharmaceutical dose form part <span style=\"background: LightGoldenRodYellow; margin: 4px; border: 1px solid khaki\"> (220000000000#220000000005)</span></p></blockquote><h3>Usages</h3><table class=\"grid\"><tr><td style=\"display: none\">-</td><td><b>Country</b></td><td><b>Jurisdiction</b></td><td><b>Language</b></td></tr><tr><td style=\"display: none\">*</td><td>United Kingdom <span style=\"background: LightGoldenRodYellow; margin: 4px; border: 1px solid khaki\"> (<a href=\"http://terminology.hl7.org/5.3.0/CodeSystem-ISO3166Part1.html\">ISO 3166-1 Codes for the representation of names of countries and their subdivisions — Part 1: Country code</a>#GBR)</span></td><td>United Kingdom <span style=\"background: LightGoldenRodYellow; margin: 4px; border: 1px solid khaki\"> (<a href=\"http://terminology.hl7.org/5.3.0/CodeSystem-ISO3166Part1.html\">ISO 3166-1 Codes for the representation of names of countries and their subdivisions — Part 1: Country code</a>#GBR)</span></td><td>English <span style=\"background: LightGoldenRodYellow; margin: 4px; border: 1px solid khaki\"> (<a href=\"http://terminology.hl7.org/5.3.0/CodeSystem-v3-ietf3066.html\">Tags for the Identification of Languages</a>#en)</span></td></tr></table></blockquote></div>"
      },
      "identifier" : [{
        "system" : "https://spor.ema.europa.eu/pmswi",
        "value" : "EU/1/98/071/004"
      },
      {
        "system" : "https://www.who-umc.org/phpid",
        "value" : "0xF79CABF272B6A7EEF104DDDA44E82809"
      }],
      "type" : {
        "coding" : [{
          "system" : "http://hl7.org/fhir/medicinal-product-type",
          "code" : "MedicinalProduct",
          "display" : "Medicinal Product"
        }]
      },
      "domain" : {
        "coding" : [{
          "system" : "http://hl7.org/fhir/medicinal-product-domain",
          "code" : "Human",
          "display" : "Human use"
        }]
      },
      "status" : {
        "coding" : [{
          "system" : "http://hl7.org/fhir/publication-status",
          "code" : "active",
          "display" : "active"
        }]
      },
      "legalStatusOfSupply" : {
        "coding" : [{
          "system" : "https://spor.ema.europa.eu/rmswi",
          "code" : "100000072084",
          "display" : "Medicinal product subject to medical prescription"
        }]
      },
      "name" : [{
        "productName" : "Xenical 120mg hard capsules",
        "type" : {
          "coding" : [{
            "system" : "https://spor.ema.europa.eu/lists/220000000000",
            "code" : "220000000001",
            "display" : "Full name"
          }]
        },
        "part" : [{
          "part" : "Xenical",
          "type" : {
            "coding" : [{
              "system" : "https://spor.ema.europa.eu/lists/220000000000",
              "code" : "220000000002",
              "display" : "Invented name part"
            }]
          }
        },
        {
          "part" : "Orlistat",
          "type" : {
            "coding" : [{
              "system" : "https://spor.ema.europa.eu/lists/220000000000",
              "code" : "220000000003",
              "display" : "Scientific name part"
            }]
          }
        },
        {
          "part" : "120mg",
          "type" : {
            "coding" : [{
              "system" : "https://spor.ema.europa.eu/lists/220000000000",
              "code" : "220000000004",
              "display" : "Strength part"
            }]
          }
        },
        {
          "part" : "hard capsules",
          "type" : {
            "coding" : [{
              "system" : "https://spor.ema.europa.eu/lists/220000000000",
              "code" : "220000000005",
              "display" : "Pharmaceutical dose form part"
            }]
          }
        }],
        "usage" : [{
          "country" : {
            "coding" : [{
              "system" : "urn:iso:std:iso:3166",
              "code" : "GBR",
              "display" : "United Kingdom"
            }]
          },
          "jurisdiction" : {
            "coding" : [{
              "system" : "urn:iso:std:iso:3166",
              "code" : "GBR",
              "display" : "United Kingdom"
            }]
          },
          "language" : {
            "coding" : [{
              "system" : "urn:ietf:bcp:47",
              "code" : "en",
              "display" : "English"
            }]
          }
        }]
      }]
    }
  },
  {
    "fullUrl" : "http://hl7.eu/fhir/ig/gravitate-health/ManufacturedItemDefinition/mid-4fab126d28f65a1084e7b50a23200363",
    "resource" : {
      "resourceType" : "ManufacturedItemDefinition",
      "id" : "mid-4fab126d28f65a1084e7b50a23200363",
      "meta" : {
        "profile" : ["http://hl7.org/fhir/uv/emedicinal-product-info/StructureDefinition/ManufacturedItemDefinition-uv-epi"]
      },
      "text" : {
        "status" : "generated",
        "div" : "<div xmlns=\"http://www.w3.org/1999/xhtml\"><p><b>Generated Narrative: ManufacturedItemDefinition</b><a name=\"mid-4fab126d28f65a1084e7b50a23200363\"> </a></p><div style=\"display: inline-block; background-color: #d9e0e7; padding: 6px; margin: 4px; border: 1px solid #8da1b4; border-radius: 5px; line-height: 60%\"><p style=\"margin-bottom: 0px\">Resource ManufacturedItemDefinition &quot;mid-4fab126d28f65a1084e7b50a23200363&quot; </p><p style=\"margin-bottom: 0px\">Profile: <a href=\"https://build.fhir.org/ig/HL7/emedicinal-product-info//StructureDefinition-ManufacturedItemDefinition-uv-epi.html\">ManufacturedItemDefinition (ePI)</a></p></div><p><b>identifier</b>: id:\u00a0EU/1/98/071/004\u00a0(use:\u00a0OFFICIAL)</p><p><b>status</b>: active</p><p><b>manufacturedDoseForm</b>: Capsule, hard <span style=\"background: LightGoldenRodYellow; margin: 4px; border: 1px solid khaki\"> (#100000073375)</span></p><p><b>unitOfPresentation</b>: Capsule, hard <span style=\"background: LightGoldenRodYellow; margin: 4px; border: 1px solid khaki\"> (rmswi#100000073375)</span></p></div>"
      },
      "identifier" : [{
        "use" : "official",
        "system" : "https://spor.ema.europa.eu/pmswi",
        "value" : "EU/1/98/071/004"
      }],
      "status" : "active",
      "manufacturedDoseForm" : {
        "coding" : [{
          "system" : "https://spor.ema.europa.eu/rmswi/",
          "code" : "100000073375",
          "display" : "Capsule, hard"
        }]
      },
      "unitOfPresentation" : {
        "coding" : [{
          "system" : "https://spor.ema.europa.eu/rmswi",
          "code" : "100000073375",
          "display" : "Capsule, hard"
        }]
      }
    }
  }]
}