{
  "resourceType" : "Bundle",
  "id" : "bundlepackageleaflet-e2464a7d3d627b9df9bef5bc3b263fb4",
  "meta" : {
    "profile" : ["http://hl7.org/fhir/uv/emedicinal-product-info/StructureDefinition/Bundle-uv-epi"]
  },
  "language" : "en",
  "identifier" : {
    "system" : "https://www.gravitatehealth.eu/sid/doc",
    "value" : "EU/1/16/1157/003"
  },
  "type" : "document",
  "timestamp" : "2023-06-27T10:09:22Z",
  "entry" : [{
    "fullUrl" : "http://hl7.eu/fhir/ig/gravitate-health/Composition/compositionb4adca48035e7857c0e645892ad2c66e",
    "resource" : {
      "resourceType" : "Composition",
      "id" : "compositionb4adca48035e7857c0e645892ad2c66e",
      "meta" : {
        "profile" : ["http://hl7.org/fhir/uv/emedicinal-product-info/StructureDefinition/Composition-uv-epi"]
      },
      "language" : "en",
      "text" : {
        "status" : "generated",
        "div" : "<div xmlns=\"http://www.w3.org/1999/xhtml\" xml:lang=\"en\" lang=\"en\"><p><b>Generated Narrative: Composition</b><a name=\"compositionb4adca48035e7857c0e645892ad2c66e\"> </a></p><div style=\"display: inline-block; background-color: #d9e0e7; padding: 6px; margin: 4px; border: 1px solid #8da1b4; border-radius: 5px; line-height: 60%\"><p style=\"margin-bottom: 0px\">Resource Composition &quot;compositionb4adca48035e7857c0e645892ad2c66e&quot;  (Language &quot;en&quot;) </p><p style=\"margin-bottom: 0px\">Profile: <a href=\"https://build.fhir.org/ig/HL7/emedicinal-product-info//StructureDefinition-Composition-uv-epi.html\">Composition (ePI)</a></p></div><p><b>identifier</b>: id:\u00a08233589eec8bc66272e5bbb8838726ca</p><p><b>status</b>: final</p><p><b>type</b>: Package Leaflet <span style=\"background: LightGoldenRodYellow; margin: 4px; border: 1px solid khaki\"> (#100000155538)</span></p><p><b>category</b>: Raw <span style=\"background: LightGoldenRodYellow; margin: 4px; border: 1px solid khaki\"> (<a href=\"CodeSystem-epicategory-cs.html\">Category of EPI</a>#R)</span></p><p><b>date</b>: 2022-02-16 13:28:17+0000</p><p><b>author</b>: <a href=\"#Organization_mah-16019cea3a857659d2c5a2018c2260df\">See above (Organization/mah-16019cea3a857659d2c5a2018c2260df)</a></p><p><b>title</b>: TEST PURPOSES ONLY - Suliqua</p><h3>Attesters</h3><table class=\"grid\"><tr><td style=\"display: none\">-</td><td><b>Mode</b></td><td><b>Time</b></td></tr><tr><td style=\"display: none\">*</td><td>Official <span style=\"background: LightGoldenRodYellow; margin: 4px; border: 1px solid khaki\"> (<a href=\"http://hl7.org/fhir/R5/codesystem-composition-attestation-mode.html\">Composition Attestation Mode</a>#official)</span></td><td>2022-02-16 13:28:17+0000</td></tr></table></div>"
      },
      "identifier" : [{
        "system" : "https://spor.ema.europa.eu/rmswi/",
        "value" : "8233589eec8bc66272e5bbb8838726ca"
      }],
      "status" : "final",
      "type" : {
        "coding" : [{
          "system" : "https://spor.ema.europa.eu/rmswi/",
          "code" : "100000155538"
        }],
        "text" : "Package Leaflet"
      },
      "category" : [{
        "coding" : [{
          "system" : "http://hl7.eu/fhir/ig/gravitate-health/CodeSystem/epicategory-cs",
          "code" : "R",
          "display" : "Raw"
        }]
      }],
      "subject" : [{
        "reference" : "MedicinalProductDefinition/mp367b9089c0743a2330f4c6e82b40ee41"
      }],
      "date" : "2022-02-16T13:28:17Z",
      "author" : [{
        "reference" : "Organization/mah-16019cea3a857659d2c5a2018c2260df"
      }],
      "title" : "TEST PURPOSES ONLY - Suliqua",
      "attester" : [{
        "mode" : {
          "coding" : [{
            "system" : "http://hl7.org/fhir/composition-attestation-mode",
            "code" : "official"
          }]
        },
        "time" : "2022-02-16T13:28:17Z"
      }],
      "section" : [{
        "title" : "B. Package Leaflet",
        "code" : {
          "coding" : [{
            "system" : "https://spor.ema.europa.eu/rmswi/",
            "code" : "100000155538"
          }],
          "text" : "B. PACKAGE LEAFLET"
        },
        "text" : {
          "status" : "additional",
          "div" : "<div xmlns=\"http://www.w3.org/1999/xhtml\">unavailable</div>"
        },
        "emptyReason" : {
          "coding" : [{
            "system" : "http://terminology.hl7.org/CodeSystem/list-empty-reason",
            "code" : "unavailable"
          }]
        },
        "section" : [{
          "title" : "Package leaflet: Information for the user",
          "code" : {
            "coding" : [{
              "system" : "https://spor.ema.europa.eu/rmswi/",
              "code" : "100000155538"
            }],
            "text" : "Package leaflet: Information for the user"
          },
          "text" : {
            "status" : "additional",
            "div" : "<div xmlns=\"http://www.w3.org/1999/xhtml\"><p>Read all of this leaflet carefully before you start using this medicine because it contains important information for you.</p><ul><li>Keep this leaflet. You may need to read it again.</li><li>If you have any further questions, ask your doctor or pharmacist or nurse.</li><li>This medicine has been prescribed for you only. Do not pass it on to others. It may harm them, even if their signs of illness are the same as yours.</li><li>If you get any side effects, talk to your doctor or pharmacist. This includes any possible side effects not listed in this leaflet. See section 4.</li></ul></div>"
          }
        },
        {
          "title" : "What is in this leaflet",
          "code" : {
            "coding" : [{
              "system" : "https://spor.ema.europa.eu/rmswi/",
              "code" : "100000155538"
            }],
            "text" : "What is in this leaflet"
          },
          "text" : {
            "status" : "additional",
            "div" : "<div xmlns=\"http://www.w3.org/1999/xhtml\"><p>What is in this leaflet</p><ol><li>What Suliqua is and what it is used for</li><li>What you need to know before you use Suliqua 3. How to use Suliqua</li><li>Possible side effects</li><li>How to store Suliqua</li><li>Contents of the pack and other information</li></ol></div>"
          }
        },
        {
          "title" : "1. What Suliqua is and what it is used for",
          "code" : {
            "coding" : [{
              "system" : "https://spor.ema.europa.eu/rmswi/",
              "code" : "100000155538"
            }],
            "text" : "1. What Suliqua is and what it is used for"
          },
          "text" : {
            "status" : "additional",
            "div" : "<div xmlns=\"http://www.w3.org/1999/xhtml\"><p>Suliqua is an injectable diabetes medicine that contains two active substances:</p><ul><li><p>insulin glargine: a long-acting type of insulin which helps control blood sugar (glucose) throughout the day.</p></li><li><p>lixisenatide: a “GLP-1 analogue” that helps the body produce its own additional insulin in response to increases in blood sugar, and slows the absorption of sugar from foods.</p></li></ul><p>Suliqua is used to treat adults with type 2 diabetes, to help control blood sugar levels when they are too high, it is an adjunct to diet and exercise. It is given, with metformin with or without sodium- glucose co-transporter-2 (SGLT2) inhibitors (gliflozin products), when other medicines are not enough on their own to control your blood sugar levels.</p></div>"
          }
        },
        {
          "title" : "2. What you need to know before you take Suliqua",
          "code" : {
            "coding" : [{
              "system" : "https://spor.ema.europa.eu/rmswi/",
              "code" : "100000155538"
            }],
            "text" : "2. What you need to know before you take Suliqua"
          },
          "text" : {
            "status" : "additional",
            "div" : "<div xmlns=\"http://www.w3.org/1999/xhtml\"><p><strong>Do not use Suliqua:</strong></p><ul><li>if you are allergic to insulin glargine or lixisenatide or to any of the other ingredients of this medicine (listed in section 6).</li></ul><p><strong>Warnings and precautions</strong></p><p>Talk to your doctor, pharmacist or nurse before using Suliqua if:</p><ul><li>you have type 1 diabetes, as Suliqua is used for type 2 diabetes and this medicine will not be right for you.</li><li>you have diabetic ketoacidosis (a complication of diabetes that occurs when the body is unable to use glucose because there is not enough insulin) since this medicine will not be right for you.</li><li>you have a severe stomach or gut problem such as a disease of the muscles of the stomach called “gastroparesis” which results in delayed stomach emptying. Since Suliqua may cause stomach side effects (see section 4), the medicine has not been studied in patients with severe stomach or gut problems. Please see the information regarding medicines that should not stay too long in your stomach in the section “Other medicines and Suliqua”.</li><li>you have severe kidney disease or you are on dialysis as the use of this medicine will not be recommended.</li></ul><p>Follow closely your doctor’s instructions for dose, monitoring (blood and urine tests), diet and physical activity (physical work and exercise) and injection technique.</p><p><strong>Be especially aware of the following:</strong></p><ul><li>Too low blood sugar (hypoglycaemia). If your blood sugar is too low, follow the guidance for hypoglycaemia (see information in the box at the end of this leaflet).</li><li>Too high blood sugar (hyperglycaemia). If your blood sugar is too high, follow the guidance for hyperglycaemia (see information in the box at the end of this leaflet).</li><li>Ensure that you use the right medicine. You must always check the label before each injection to avoid mix-ups between Suliqua and other insulins.</li><li>If you have poor eyesight, please see section 3.</li></ul><p><em>While using this medicine be aware of the following and talk to your doctor, pharmacist or nurse before using Suliqua:</em></p><ul><li>severe pain in your stomach area (abdomen) that will not go away. This could be a sign of inflamed pancreas (acute pancreatitis).</li><li>loss of fluids from your body (dehydration) e.g. in case of vomiting and diarrhoea. It is important to avoid dehydration by drinking plenty of fluids, especially during the first weeks of treatment with Suliqua.</li></ul><p><em>Skin changes at the injection site</em> The injection site should be rotated to prevent skin changes such as lumps under the skin. The insulin may not work very well if you inject into a lumpy area (see How to use Suliqua). Contact your doctor if you are currently injecting into a lumpy area before you start injecting in a different area. Your doctor may tell you to check your blood sugar more closely, and to adjust your insulin or your other antidiabetic medicine dose.</p><p><em>Travel</em></p><p>Talk to your doctor before travelling. You may need to talk about:</p><ul><li>If your medicine is available in the country you are visiting.</li><li>How to arrange the supply of your medicine, needles and other items. * How to correctly store your medicine while travelling.</li><li>The time you eat meals and use your medicine.</li><li>The possible effects of changing to different time zones.</li><li>Any health risks in the countries you will visit.</li><li>What you should do in an emergency if you feel unwell or become ill.</li></ul><p><strong>Children and adolescents</strong></p><p>There is no experience with Suliqua in children and adolescents aged less than 18 years; therefore, the use of Suliqua is not recommended in this age group.</p><p><strong>Other medicines and Suliqua</strong></p><p>Tell your doctor, pharmacist or nurse if you are using, have recently used or might use any other medicines. If you use another antidiabetic medicine, discuss with your doctor whether you should stop using that medicine when starting Suliqua.</p><p>Some medicines can change your blood sugar level. This may mean your doctor may need to change your Suliqua dose. So, before taking a medicine ask your doctor if it will affect your blood sugar and what action, if any, you need to take. You also need to be careful when you stop taking a medicine.</p><p>The effect of some medicines you swallow might be affected by Suliqua. Some medicines such as antibiotics, oral contraceptives, statins (medicines like atorvastatin to lower cholesterol), gastro-resistant tablets or capsules or granules or oral powder or suspensions that should not stay too long in your stomach may need to be taken at least one hour before or four hours after your Suliqua injection.</p><p><em>Your blood sugar level may fall (hypoglycaemia) if you take:</em></p><ul><li>Any other medicine to treat diabetes.</li><li>Disopyramide, for some heart problems.</li><li>Fluoxetine, for depression.</li><li>Sulphonamide antibiotics, to treat infections.</li><li>Fibrates, for lowering high levels of blood fats.</li><li>Monoamine oxidase inhibitors (MAOIs), for depression or Parkinson ́s disease.</li><li>Angiotensin converting enzyme (ACE) inhibitors, for heart problems or high blood pressure.</li><li>Medicines to relieve pain and lower fever, such as pentoxifylline, propoxyphene and salicylates (such as acetylsalicylic acid).</li><li>Pentamidine, for some parasite infections. This may cause too low blood sugar which is sometimes followed by too high blood sugar.</li></ul><p><em>Your blood sugar level may rise (hyperglycaemia) if you take:</em></p><ul><li>Corticosteroids such as cortisone and prednisolone, for inflammation.</li><li>Danazol, for endometriosis.</li><li>Diazoxide, for high blood pressure.</li><li>Protease inhibitors, for HIV.</li><li>Diuretics, for high blood pressure or fluid retention.</li><li>Glucagon, for very low blood sugar.</li><li>Isoniazid, for tuberculosis.</li><li>Somatropin, a growth hormone.</li><li>Thyroid hormones, for thyroid gland problems.</li><li>Oestrogens and progestogens, such as in the contraceptive pill for birth control or use of oestrogens for bone loss (osteoporosis).</li><li>Clozapine, olanzapine and phenothiazine derivatives, for mental health problems.</li><li>Sympathomimetic medicines such as epinephrine (adrenaline), salbutamol and terbutaline, for asthma.</li></ul><p><em>Your blood sugar level may either rise or fall if you take:</em></p><ul><li>Beta-blockers or clonidine, for high blood pressure.</li><li>Lithium salts, for mental health problems.</li></ul><p><em>Medicine that may reduce warning signs of low blood sugar</em></p><p>Beta-blockers and some other medicines (such as clonidine, guanethidine, reserpine – for high blood pressure) may make it harder to recognise warning signs of your low blood sugar levels (hypoglycaemia). It can even hide or stop the first signs that your blood sugar is too low.</p><p>If any of the above apply to you (or you are not sure), talk to your doctor, pharmacist or nurse before using this medicine.</p><p><em>Warfarin or other anticoagulants</em></p><p>Tell your doctor if you are taking warfarin or other anticoagulants (medicines used to prevent clotting of the blood) as you might need to have more frequent blood tests (called ‘International Normalised Ratio’ or INR test) to check your blood clotting.</p><p><strong>Suliqua with alcohol</strong></p><p>Your blood sugar level may either rise or fall if you drink alcohol. You should check your blood sugar level more often.</p><p><strong>Pregnancy and breast-feeding</strong></p><p>Suliqua should not be used during pregnancy. It is not known if Suliqua harms your unborn child. Suliqua should not be used if breast-feeding. It is not known if Suliqua passes into your milk. If you are pregnant or breast-feeding, think you may be pregnant or are planning to have a baby, ask your doctor or pharmacist for advice before taking this medicine.</p><p><strong>Driving and using machines</strong> Having too low or too high blood sugar (see information in the box at the end of this leaflet) can affect your ability to drive and use tools or machines. Your concentration may be affected. This could be dangerous to yourself and others.</p><p>Ask your doctor whether you can drive if:</p><ul><li>Your blood sugar is often too low.</li><li>You find it hard to recognise when your blood sugar is too low.</li></ul><p><strong>Suliqua contains sodium</strong></p><p>This medicine contains less than 1 mmol sodium (23 mg) per dose, that is to say essentially ‘sodium-free’.</p><p><strong>Suliqua contains metacresol</strong></p><p>This medicine contains metacresol which may cause allergic reactions.</p></div>"
          }
        },
        {
          "title" : "3. How to take Suliqua",
          "code" : {
            "coding" : [{
              "system" : "https://spor.ema.europa.eu/rmswi/",
              "code" : "100000155538"
            }],
            "text" : "3. How to take Suliqua"
          },
          "text" : {
            "status" : "additional",
            "div" : "<div xmlns=\"http://www.w3.org/1999/xhtml\"><p>Always use this medicine exactly as your doctor has told you. Your doctor may tell you to use a different dose of Suliqua compared to your previous insulin dose or glucose lowering medicine if any. Check with your doctor, pharmacist or nurse if you are not sure.</p><p>Based on your lifestyle, your blood sugar tests and your previous insulin use, your doctor will tell you:</p><ul><li>How much Suliqua you need each day and at what time.</li><li>When to check your blood sugar level and if you need to carry out urine tests.</li><li>When you may need a higher or lower dose. Your doctor may tell you to use Suliqua with other medicines for high blood sugar.</li></ul><p><strong>How much to use</strong></p><p>Suliqua 100 units/ml + 50 micrograms/ml solution for injection in pre-filled pen:</p><ul><li>This pen provides a dose of 10 to 40 dose steps in one injection, in steps of 1 dose step.</li><li>Each dose step you dial contains 1 unit of insulin glargine and 0.5 micrograms of lixisenatide.</li></ul><p>Your dose of Suliqua is administered as ‘dose steps’. The dose window on the pen shows the number of dose steps.</p><p>Do not inject a dose lower than 10 dose steps. Do not inject a dose higher than 40 dose steps. If a dose greater than 40 dose steps is needed, your doctor will prescribe a different strength. For dose steps from 30-60 units, Suliqua 100 units/ml + 33 micrograms/ml solution for injection in pre-filled pen is available.</p><p>Many factors may affect your blood sugar level. You should know what they are so that you can take the right action if your blood sugar level changes and help stop it becoming too high or too low. See the box at the end of this leaflet for more information.</p><p><em>Use in elderly patients (65 years and older)</em> If you are 65 years or older, talk to your doctor as you may need a lower dose.</p><p><em>If you have kidney or liver problems</em></p><p>If you have kidney or liver problems, talk to your doctor as you may need a lower dose.</p><p><strong>When to inject Suliqua</strong></p><p>Use Suliqua once a day, within 1 hour before a meal. Preferably inject Suliqua before the same meal every day, when you have chosen the most convenient meal.</p><p><strong>Before injecting Suliqua</strong></p><ul><li>Always follow the “Instructions for use” that come with this package leaflet and use the pen as described.</li><li>If you do not follow all of these instructions, you may get too much or too little of Suliqua. To avoid mistakes, always check the medicine pack and label on the pen before each injection to make sure you have the correct pen, especially if you inject more than one medicine. Ask your doctor or pharmacist if you are not sure.</li></ul><p><strong>How to inject</strong></p><ul><li>Suliqua is injected under the skin (subcutaneous use or “SC”).</li><li>Inject it into the front of your thighs, upper arms or the front of your waist (abdomen).</li><li>Change the place within the area you inject each day. This will reduce the risk of developing dents or lumps at the site (for more information, see “Other side effects” in section 4).</li></ul><p><strong>Do not use Suliqua</strong></p><ul><li>If there are particles in the Suliqua. The solution should be clear, colourless and water-like.</li></ul><p><strong>Other important information about using the pre-filled pens</strong></p><ul><li>Always use a new needle for each injection. The re-use of needles increases the risk of blocked needles which may cause under- or overdosing. Dispose of the needle safely after each use.</li><li>To prevent infection being passed from one person to another, pens should never be used for more than one person, even when the needle is changed.</li><li>Only use needles that are compatible with Suliqua pen (see “Instructions for Use”).</li><li>A safety test must be performed before each injection.</li><li>Throw away the used needle in a sharps container, or as told by your pharmacist or local authority.</li></ul><p>Never use a syringe to remove the solution from the pen to avoid dosing errors and potential overdose.</p><p>If the pen is damaged, has not been stored correctly, if you are not sure that it is working properly or you notice that your blood sugar control is unexpectedly getting worse:</p><ul><li>Throw the pen away and use a new one.</li><li>Talk to your doctor, pharmacist or nurse if you think you have a problem with your pen.</li></ul><p><strong>If you use more Suliqua than you should</strong></p><p>If you have injected too much of this medicine, your blood sugar level may become too low (hypoglycaemia). Check your blood sugar and eat more food to prevent your blood sugar getting too low (hypoglycaemia). If your blood sugar gets too low, see the advice in the box at the end of this leaflet.</p><p><strong>If you forget to use Suliqua</strong></p><p>If you have missed a dose of Suliqua or if you have not injected enough insulin, your blood sugar level may become too high (hyperglycaemia): When needed, Suliqua can be injected before the next meal.</p><ul><li>Do not inject a double dose to make up for a forgotten dose.</li><li>Do not use two injections per day</li><li>Check your blood sugar and then inject your next dose at the usual time.</li><li>For information on the treatment of hyperglycaemia, see the box at the end of this leaflet.</li></ul><p><strong>If you stop using Suliqua</strong></p><p>Do not stop using this medicine without talking to your doctor. If you do, it could lead to very high blood sugar (hyperglycaemia) and a build-up of acid in the blood (ketoacidosis).</p><p>If you have any further questions on the use of this medicine, ask your doctor, pharmacist or nurse.</p></div>"
          }
        },
        {
          "title" : "4. Possible side effects",
          "code" : {
            "coding" : [{
              "system" : "https://spor.ema.europa.eu/rmswi/",
              "code" : "100000155538"
            }],
            "text" : "4. Possible side effects"
          },
          "text" : {
            "status" : "additional",
            "div" : "<div xmlns=\"http://www.w3.org/1999/xhtml\"><p>Like all medicines, this medicine can cause side effects, although not everybody gets them.</p><p>If you notice signs of your blood sugar being too low (hypoglycaemia), take action to increase your blood sugar level straightaway (see the box at the end of this leaflet). Hypoglycaemia can be very serious and is very common with medicines containing insulin (may affect more than 1 in 10 people). Low blood sugar means that there is not enough sugar in your blood. If your blood sugar falls too low, you may pass out (become unconscious). If blood sugar remains very low for too long it may cause brain damage and may be life-threatening. For more information, see the box at the end of this leaflet.</p><p><strong>Other side effects</strong></p><p>Tell your doctor, pharmacist or nurse if you notice any of the following side effects:</p><p><strong>Skin changes at the injection site</strong></p><p>If you inject insulin too often at the same place, the skin may either shrink (lipoatrophy) or thicken (lipohypertrophy). Lumps under the skin may also be caused by build-up of a protein called amyloid (cutaneous amyloidosis). This is not known how often these skin changes occur. The insulin may not work very well if you inject into a lumpy area. Change the injection site with each injection to help prevent these skin changes.</p><p><strong>Common (may affect up to 1 in 10 people)</strong></p><ul><li>Feeling dizzy</li><li>Feeling sick (nausea)</li><li>V omiting</li><li>Diarrhoea</li><li>Skin and allergic reactions at the injection site: The signs may include reddening, unusually intense pain when injecting, itching, hives, swelling or inflammation. This can spread around the injection site. Most minor reactions to insulins usually disappear in a few days to a few weeks.</li></ul><p><strong>Uncommon (may affect up to 1 in 100 people)</strong></p><ul><li>Cold, runny nose, sore throat</li><li>Hives (urticaria)</li><li>Headache</li><li>Indigestion (dyspepsia)</li><li>Stomach ache</li><li>Tiredness</li></ul><p><strong>Rare (may affect up to 1 in 1,000 people)</strong></p><ul><li>A delay in the emptying of the stomach</li></ul><p><strong>Reporting of side effects</strong></p><p>If you get any side effects, talk to your doctor, pharmacist or nurse. This includes any possible side effects not listed in this leaflet. You can also report side effects directly via the national reporting system listed in Appendix V. By reporting side effects you can help provide more information on the safety of this medicine.</p></div>"
          }
        },
        {
          "title" : "5. How to store Suliqua",
          "code" : {
            "coding" : [{
              "system" : "https://spor.ema.europa.eu/rmswi/",
              "code" : "100000155538"
            }],
            "text" : "5. How to store Suliqua"
          },
          "text" : {
            "status" : "additional",
            "div" : "<div xmlns=\"http://www.w3.org/1999/xhtml\"><p>Keep this medicine out of the sight and reach of children.</p><p>Do not use this medicine after the expiry date which is stated on the carton and on the label of the pen after “EXP”. The expiry date refers to the last day of that month.</p><p><strong>Before first use</strong></p><p>Store in a refrigerator (2°C-8°C). Do not freeze or place next to the freezer compartment or a freezer pack. Keep the pen in the outer carton in order to protect from light.</p><p><strong>After first use</strong></p><p>Store your pen in use below 25°C for a maximum of 28 days. Discard the pen after this period. Do not return the pen to a refrigerator and do not freeze. Store the pen away from direct heat or direct light. Always keep the cap on the pen when you are not using it in order to protect it from light. Do not leave the pen in a car on an exceptionally warm or cold day.</p><p>Do not store the pen with the needle attached.</p><p>Do not throw away any medicines via wastewater or household waste. Ask your pharmacist how to throw away medicines you no longer used. These measures will help protect the environment.</p></div>"
          }
        },
        {
          "title" : "6. Contents of the pack and other information",
          "code" : {
            "coding" : [{
              "system" : "https://spor.ema.europa.eu/rmswi/",
              "code" : "100000155538"
            }],
            "text" : "6. Contents of the pack and other information"
          },
          "text" : {
            "status" : "additional",
            "div" : "<div xmlns=\"http://www.w3.org/1999/xhtml\"><p><strong>What Suliqua contains</strong></p><ul><li>The active substances are insulin glargine and lixisenatide. Each pen contains 300 units insulin glargine and 150 micrograms lixisenatide in 3 ml of solution. Each ml contains 100 units insulin glargine and 50 micrograms lixisenatide. Each dose step of Suliqua contains 1 unit of insulin glargine and 0.5 micrograms of lixisenatide.</li><li>The other ingredients are: glycerol 85%, methionine, metacresol, zinc chloride, concentrated hydrochloric acid and sodium hydroxide (for pH adjustment) and water for injections. See also section 2 “What you need to know before you use Suliqua” for information on sodium and metacresol.</li></ul><p><strong>What Suliqua looks like and contents of the pack</strong></p><p>Suliqua is a clear and colourless solution for injection (injection) filled in a glass cartridge inserted in a pre-filled pen (SoloStar).</p><p>Pack sizes of 3, 5 and 10 pre-filled pens.</p><p>Not all pack sizes may be marketed.</p><p><strong>Marketing Authorisation Holder</strong></p><p>Sanofi Winthrop Industrie 82 avenue Raspail</p><p>94250 Gentilly</p><p>France</p><p><strong>Manufacturer</strong></p><p>Sanofi-Aventis Deutschland GmbH</p><p>Industriepark Höchst - 65926 Frankfurt am Main</p><p>Germany</p></div>"
          }
        }]
      }]
    }
  },
  {
    "fullUrl" : "http://hl7.eu/fhir/ig/gravitate-health/ClinicalUseDefinition/cud-42659cd40ce761bcf6d15bd28423e45f",
    "resource" : {
      "resourceType" : "ClinicalUseDefinition",
      "id" : "cud-42659cd40ce761bcf6d15bd28423e45f",
      "meta" : {
        "profile" : ["http://hl7.org/fhir/uv/emedicinal-product-info/StructureDefinition/ClinicalUseDefinition-indication-uv-epi"]
      },
      "text" : {
        "status" : "generated",
        "div" : "<div xmlns=\"http://www.w3.org/1999/xhtml\"><p><b>Generated Narrative: ClinicalUseDefinition</b><a name=\"cud-42659cd40ce761bcf6d15bd28423e45f\"> </a></p><div style=\"display: inline-block; background-color: #d9e0e7; padding: 6px; margin: 4px; border: 1px solid #8da1b4; border-radius: 5px; line-height: 60%\"><p style=\"margin-bottom: 0px\">Resource ClinicalUseDefinition &quot;cud-42659cd40ce761bcf6d15bd28423e45f&quot; </p><p style=\"margin-bottom: 0px\">Profile: <a href=\"https://build.fhir.org/ig/HL7/emedicinal-product-info//StructureDefinition-ClinicalUseDefinition-indication-uv-epi.html\">ClinicalUseDefinition Indication (ePI)</a></p></div><p><b>identifier</b>: id:\u00a0Hypertension\u00a0(use:\u00a0OFFICIAL)</p><p><b>type</b>: indication</p><p><b>subject</b>: <a href=\"#MedicinalProductDefinition_mp367b9089c0743a2330f4c6e82b40ee41\">See above (MedicinalProductDefinition/mp367b9089c0743a2330f4c6e82b40ee41)</a></p><blockquote><p><b>indication</b></p><h3>DiseaseSymptomProcedures</h3><table class=\"grid\"><tr><td style=\"display: none\">-</td><td><b>Concept</b></td></tr><tr><td style=\"display: none\">*</td><td>Hypertension <span style=\"background: LightGoldenRodYellow; margin: 4px; border: 1px solid khaki\"> (mdr#10020772)</span></td></tr></table></blockquote></div>"
      },
      "identifier" : [{
        "use" : "official",
        "system" : "https://spor.ema.europa.eu/rmswi/#/",
        "value" : "Hypertension"
      }],
      "type" : "indication",
      "subject" : [{
        "reference" : "MedicinalProductDefinition/mp367b9089c0743a2330f4c6e82b40ee41"
      }],
      "indication" : {
        "diseaseSymptomProcedure" : {
          "concept" : {
            "coding" : [{
              "system" : "http://terminology.hl7.org/CodeSystem/mdr",
              "code" : "10020772",
              "display" : "Hypertension"
            }]
          }
        }
      }
    }
  },
  {
    "fullUrl" : "http://hl7.eu/fhir/ig/gravitate-health/ClinicalUseDefinition/cud-7b1263be67675b61a6b6e6f0a5c35389",
    "resource" : {
      "resourceType" : "ClinicalUseDefinition",
      "id" : "cud-7b1263be67675b61a6b6e6f0a5c35389",
      "meta" : {
        "profile" : ["http://hl7.org/fhir/uv/emedicinal-product-info/StructureDefinition/ClinicalUseDefinition-interaction-uv-epi"]
      },
      "text" : {
        "status" : "generated",
        "div" : "<div xmlns=\"http://www.w3.org/1999/xhtml\"><p><b>Generated Narrative: ClinicalUseDefinition</b><a name=\"cud-7b1263be67675b61a6b6e6f0a5c35389\"> </a></p><div style=\"display: inline-block; background-color: #d9e0e7; padding: 6px; margin: 4px; border: 1px solid #8da1b4; border-radius: 5px; line-height: 60%\"><p style=\"margin-bottom: 0px\">Resource ClinicalUseDefinition &quot;cud-7b1263be67675b61a6b6e6f0a5c35389&quot; </p><p style=\"margin-bottom: 0px\">Profile: <a href=\"https://build.fhir.org/ig/HL7/emedicinal-product-info//StructureDefinition-ClinicalUseDefinition-interaction-uv-epi.html\">ClinicalUseDefinition Interaction (ePI)</a></p></div><p><b>identifier</b>: id:\u00a0Y9449Q51XH\u00a0(use:\u00a0OFFICIAL)</p><p><b>type</b>: interaction</p><p><b>subject</b>: <a href=\"#MedicinalProductDefinition_mp367b9089c0743a2330f4c6e82b40ee41\">See above (MedicinalProductDefinition/mp367b9089c0743a2330f4c6e82b40ee41)</a></p><blockquote><p><b>interaction</b></p><h3>Interactants</h3><table class=\"grid\"><tr><td style=\"display: none\">-</td><td><b>Item[x]</b></td></tr><tr><td style=\"display: none\">*</td><td>Bezafibrat <span style=\"background: LightGoldenRodYellow; margin: 4px; border: 1px solid khaki\"> (#Y9449Q51XH)</span></td></tr></table></blockquote></div>"
      },
      "identifier" : [{
        "use" : "official",
        "system" : "https://gsrs.ncats.nih.gov/ginas/app/beta/",
        "value" : "Y9449Q51XH"
      }],
      "type" : "interaction",
      "subject" : [{
        "reference" : "MedicinalProductDefinition/mp367b9089c0743a2330f4c6e82b40ee41"
      }],
      "interaction" : {
        "interactant" : [{
          "itemCodeableConcept" : {
            "coding" : [{
              "system" : "https://gsrs.ncats.nih.gov/ginas/app/beta/",
              "code" : "Y9449Q51XH",
              "display" : "Bezafibrat"
            }]
          }
        }]
      }
    }
  },
  {
    "fullUrl" : "http://hl7.eu/fhir/ig/gravitate-health/Ingredient/ingredient-for-suliqua-insulinglargine",
    "resource" : {
      "resourceType" : "Ingredient",
      "id" : "ingredient-for-suliqua-insulinglargine",
      "meta" : {
        "profile" : ["http://hl7.org/fhir/uv/emedicinal-product-info/StructureDefinition/Ingredient-uv-epi"]
      },
      "text" : {
        "status" : "generated",
        "div" : "<div xmlns=\"http://www.w3.org/1999/xhtml\"><p><b>Generated Narrative: Ingredient</b><a name=\"ingredient-for-suliqua-insulinglargine\"> </a></p><div style=\"display: inline-block; background-color: #d9e0e7; padding: 6px; margin: 4px; border: 1px solid #8da1b4; border-radius: 5px; line-height: 60%\"><p style=\"margin-bottom: 0px\">Resource Ingredient &quot;ingredient-for-suliqua-insulinglargine&quot; </p><p style=\"margin-bottom: 0px\">Profile: <a href=\"https://build.fhir.org/ig/HL7/emedicinal-product-info//StructureDefinition-Ingredient-uv-epi.html\">Ingredient (ePI)</a></p></div><p><b>identifier</b>: id:\u00a02ZM8CX04RZ\u00a0(use:\u00a0OFFICIAL)</p><p><b>status</b>: active</p><p><b>for</b>: </p><ul><li><a href=\"#ManufacturedItemDefinition_mid-66d97ddf0e95a23a3c0f4f2102139f34\">See above (ManufacturedItemDefinition/mid-66d97ddf0e95a23a3c0f4f2102139f34)</a></li><li><a href=\"#MedicinalProductDefinition_mp367b9089c0743a2330f4c6e82b40ee41\">See above (MedicinalProductDefinition/mp367b9089c0743a2330f4c6e82b40ee41)</a></li><li><a href=\"#AdministrableProductDefinition_ap-66d97ddf0e95a23a3c0f4f2102139f34\">See above (AdministrableProductDefinition/ap-66d97ddf0e95a23a3c0f4f2102139f34)</a></li></ul><p><b>role</b>: active <span style=\"background: LightGoldenRodYellow; margin: 4px; border: 1px solid khaki\"> (rmswi#72072)</span></p><h3>Manufacturers</h3><table class=\"grid\"><tr><td style=\"display: none\">-</td><td><b>Manufacturer</b></td></tr><tr><td style=\"display: none\">*</td><td><a href=\"#Organization_mapi-ab61fc2db513f79636782643b3407aa5\">See above (Organization/mapi-ab61fc2db513f79636782643b3407aa5)</a></td></tr></table><blockquote><p><b>substance</b></p><h3>Codes</h3><table class=\"grid\"><tr><td style=\"display: none\">-</td><td><b>Concept</b></td></tr><tr><td style=\"display: none\">*</td><td>Insulin glargine <span style=\"background: LightGoldenRodYellow; margin: 4px; border: 1px solid khaki\"> (beta#2ZM8CX04RZ)</span></td></tr></table><h3>Strengths</h3><table class=\"grid\"><tr><td style=\"display: none\">-</td><td><b>Presentation[x]</b></td><td><b>Basis</b></td></tr><tr><td style=\"display: none\">*</td><td>100 U/ml<span style=\"background: LightGoldenRodYellow\"> (Details: UCUM code U/ml = 'U/ml')</span></td><td>active ingredient - basis of strength <span style=\"background: LightGoldenRodYellow; margin: 4px; border: 1px solid khaki\"> (<a href=\"http://terminology.hl7.org/5.3.0/CodeSystem-v3-RoleClass.html\">RoleClass</a>#ACTIB)</span></td></tr></table></blockquote></div>"
      },
      "identifier" : {
        "use" : "official",
        "system" : "https://gsrs.ncats.nih.gov/ginas/app/beta",
        "value" : "2ZM8CX04RZ"
      },
      "status" : "active",
      "for" : [{
        "reference" : "ManufacturedItemDefinition/mid-66d97ddf0e95a23a3c0f4f2102139f34"
      },
      {
        "reference" : "MedicinalProductDefinition/mp367b9089c0743a2330f4c6e82b40ee41"
      },
      {
        "reference" : "AdministrableProductDefinition/ap-66d97ddf0e95a23a3c0f4f2102139f34"
      }],
      "role" : {
        "coding" : [{
          "system" : "https://spor.ema.europa.eu/rmswi",
          "code" : "72072",
          "display" : "active"
        }]
      },
      "manufacturer" : [{
        "manufacturer" : {
          "reference" : "Organization/mapi-ab61fc2db513f79636782643b3407aa5"
        }
      }],
      "substance" : {
        "code" : {
          "concept" : {
            "coding" : [{
              "system" : "https://gsrs.ncats.nih.gov/ginas/app/beta",
              "code" : "2ZM8CX04RZ",
              "display" : "Insulin glargine"
            }]
          }
        },
        "strength" : [{
          "presentationQuantity" : {
            "value" : 100,
            "system" : "http://unitsofmeasure.org",
            "code" : "U/ml"
          },
          "basis" : {
            "coding" : [{
              "system" : "http://terminology.hl7.org/CodeSystem/v3-RoleClass",
              "code" : "ACTIB",
              "display" : "active ingredient - basis of strength"
            }]
          }
        }]
      }
    }
  },
  {
    "fullUrl" : "http://hl7.eu/fhir/ig/gravitate-health/Ingredient/ingredient-for-suliqua-lixisenatide",
    "resource" : {
      "resourceType" : "Ingredient",
      "id" : "ingredient-for-suliqua-lixisenatide",
      "meta" : {
        "profile" : ["http://hl7.org/fhir/uv/emedicinal-product-info/StructureDefinition/Ingredient-uv-epi"]
      },
      "text" : {
        "status" : "generated",
        "div" : "<div xmlns=\"http://www.w3.org/1999/xhtml\"><p><b>Generated Narrative: Ingredient</b><a name=\"ingredient-for-suliqua-lixisenatide\"> </a></p><div style=\"display: inline-block; background-color: #d9e0e7; padding: 6px; margin: 4px; border: 1px solid #8da1b4; border-radius: 5px; line-height: 60%\"><p style=\"margin-bottom: 0px\">Resource Ingredient &quot;ingredient-for-suliqua-lixisenatide&quot; </p><p style=\"margin-bottom: 0px\">Profile: <a href=\"https://build.fhir.org/ig/HL7/emedicinal-product-info//StructureDefinition-Ingredient-uv-epi.html\">Ingredient (ePI)</a></p></div><p><b>identifier</b>: id:\u00a074O62BB01U\u00a0(use:\u00a0OFFICIAL)</p><p><b>status</b>: active</p><p><b>for</b>: </p><ul><li><a href=\"#ManufacturedItemDefinition_mid-66d97ddf0e95a23a3c0f4f2102139f34\">See above (ManufacturedItemDefinition/mid-66d97ddf0e95a23a3c0f4f2102139f34)</a></li><li><a href=\"#MedicinalProductDefinition_mp367b9089c0743a2330f4c6e82b40ee41\">See above (MedicinalProductDefinition/mp367b9089c0743a2330f4c6e82b40ee41)</a></li><li><a href=\"#AdministrableProductDefinition_ap-66d97ddf0e95a23a3c0f4f2102139f34\">See above (AdministrableProductDefinition/ap-66d97ddf0e95a23a3c0f4f2102139f34)</a></li></ul><p><b>role</b>: active <span style=\"background: LightGoldenRodYellow; margin: 4px; border: 1px solid khaki\"> (rmswi#72072)</span></p><h3>Manufacturers</h3><table class=\"grid\"><tr><td style=\"display: none\">-</td><td><b>Manufacturer</b></td></tr><tr><td style=\"display: none\">*</td><td><a href=\"#Organization_mapi-ab61fc2db513f79636782643b3407aa5\">See above (Organization/mapi-ab61fc2db513f79636782643b3407aa5)</a></td></tr></table><blockquote><p><b>substance</b></p><h3>Codes</h3><table class=\"grid\"><tr><td style=\"display: none\">-</td><td><b>Concept</b></td></tr><tr><td style=\"display: none\">*</td><td>Lixisenatide <span style=\"background: LightGoldenRodYellow; margin: 4px; border: 1px solid khaki\"> (beta#74O62BB01U)</span></td></tr></table><h3>Strengths</h3><table class=\"grid\"><tr><td style=\"display: none\">-</td><td><b>Presentation[x]</b></td><td><b>Basis</b></td></tr><tr><td style=\"display: none\">*</td><td>50 ug/ml<span style=\"background: LightGoldenRodYellow\"> (Details: UCUM code ug/ml = 'ug/ml')</span></td><td>active ingredient - basis of strength <span style=\"background: LightGoldenRodYellow; margin: 4px; border: 1px solid khaki\"> (<a href=\"http://terminology.hl7.org/5.3.0/CodeSystem-v3-RoleClass.html\">RoleClass</a>#ACTIB)</span></td></tr></table></blockquote></div>"
      },
      "identifier" : {
        "use" : "official",
        "system" : "https://gsrs.ncats.nih.gov/ginas/app/beta",
        "value" : "74O62BB01U"
      },
      "status" : "active",
      "for" : [{
        "reference" : "ManufacturedItemDefinition/mid-66d97ddf0e95a23a3c0f4f2102139f34"
      },
      {
        "reference" : "MedicinalProductDefinition/mp367b9089c0743a2330f4c6e82b40ee41"
      },
      {
        "reference" : "AdministrableProductDefinition/ap-66d97ddf0e95a23a3c0f4f2102139f34"
      }],
      "role" : {
        "coding" : [{
          "system" : "https://spor.ema.europa.eu/rmswi",
          "code" : "72072",
          "display" : "active"
        }]
      },
      "manufacturer" : [{
        "manufacturer" : {
          "reference" : "Organization/mapi-ab61fc2db513f79636782643b3407aa5"
        }
      }],
      "substance" : {
        "code" : {
          "concept" : {
            "coding" : [{
              "system" : "https://gsrs.ncats.nih.gov/ginas/app/beta",
              "code" : "74O62BB01U",
              "display" : "Lixisenatide"
            }]
          }
        },
        "strength" : [{
          "presentationQuantity" : {
            "value" : 50,
            "system" : "http://unitsofmeasure.org",
            "code" : "ug/ml"
          },
          "basis" : {
            "coding" : [{
              "system" : "http://terminology.hl7.org/CodeSystem/v3-RoleClass",
              "code" : "ACTIB",
              "display" : "active ingredient - basis of strength"
            }]
          }
        }]
      }
    }
  },
  {
    "fullUrl" : "http://hl7.eu/fhir/ig/gravitate-health/Ingredient/ingredient-for-suliqua-glycerol85whodd",
    "resource" : {
      "resourceType" : "Ingredient",
      "id" : "ingredient-for-suliqua-glycerol85whodd",
      "meta" : {
        "profile" : ["http://hl7.org/fhir/uv/emedicinal-product-info/StructureDefinition/Ingredient-uv-epi"]
      },
      "text" : {
        "status" : "generated",
        "div" : "<div xmlns=\"http://www.w3.org/1999/xhtml\"><p><b>Generated Narrative: Ingredient</b><a name=\"ingredient-for-suliqua-glycerol85whodd\"> </a></p><div style=\"display: inline-block; background-color: #d9e0e7; padding: 6px; margin: 4px; border: 1px solid #8da1b4; border-radius: 5px; line-height: 60%\"><p style=\"margin-bottom: 0px\">Resource Ingredient &quot;ingredient-for-suliqua-glycerol85whodd&quot; </p><p style=\"margin-bottom: 0px\">Profile: <a href=\"https://build.fhir.org/ig/HL7/emedicinal-product-info//StructureDefinition-Ingredient-uv-epi.html\">Ingredient (ePI)</a></p></div><p><b>identifier</b>: id:\u00a0PDC6A3C0OX\u00a0(use:\u00a0OFFICIAL)</p><p><b>status</b>: active</p><p><b>for</b>: </p><ul><li><a href=\"#ManufacturedItemDefinition_mid-66d97ddf0e95a23a3c0f4f2102139f34\">See above (ManufacturedItemDefinition/mid-66d97ddf0e95a23a3c0f4f2102139f34)</a></li><li><a href=\"#MedicinalProductDefinition_mp367b9089c0743a2330f4c6e82b40ee41\">See above (MedicinalProductDefinition/mp367b9089c0743a2330f4c6e82b40ee41)</a></li><li><a href=\"#AdministrableProductDefinition_ap-66d97ddf0e95a23a3c0f4f2102139f34\">See above (AdministrableProductDefinition/ap-66d97ddf0e95a23a3c0f4f2102139f34)</a></li></ul><p><b>role</b>: Excipient <span style=\"background: LightGoldenRodYellow; margin: 4px; border: 1px solid khaki\"> (rmswi#100000072082)</span></p><h3>Manufacturers</h3><table class=\"grid\"><tr><td style=\"display: none\">-</td><td><b>Manufacturer</b></td></tr><tr><td style=\"display: none\">*</td><td><a href=\"#Organization_mapi-ab61fc2db513f79636782643b3407aa5\">See above (Organization/mapi-ab61fc2db513f79636782643b3407aa5)</a></td></tr></table><blockquote><p><b>substance</b></p><h3>Codes</h3><table class=\"grid\"><tr><td style=\"display: none\">-</td><td><b>Concept</b></td></tr><tr><td style=\"display: none\">*</td><td>GLYCEROL 85% [WHO-DD] <span style=\"background: LightGoldenRodYellow; margin: 4px; border: 1px solid khaki\"> (beta#PDC6A3C0OX)</span></td></tr></table></blockquote></div>"
      },
      "identifier" : {
        "use" : "official",
        "system" : "https://gsrs.ncats.nih.gov/ginas/app/beta",
        "value" : "PDC6A3C0OX"
      },
      "status" : "active",
      "for" : [{
        "reference" : "ManufacturedItemDefinition/mid-66d97ddf0e95a23a3c0f4f2102139f34"
      },
      {
        "reference" : "MedicinalProductDefinition/mp367b9089c0743a2330f4c6e82b40ee41"
      },
      {
        "reference" : "AdministrableProductDefinition/ap-66d97ddf0e95a23a3c0f4f2102139f34"
      }],
      "role" : {
        "coding" : [{
          "system" : "https://spor.ema.europa.eu/rmswi",
          "code" : "100000072082",
          "display" : "Excipient"
        }]
      },
      "manufacturer" : [{
        "manufacturer" : {
          "reference" : "Organization/mapi-ab61fc2db513f79636782643b3407aa5"
        }
      }],
      "substance" : {
        "code" : {
          "concept" : {
            "coding" : [{
              "system" : "https://gsrs.ncats.nih.gov/ginas/app/beta",
              "code" : "PDC6A3C0OX",
              "display" : "GLYCEROL 85% [WHO-DD]"
            }]
          }
        }
      }
    }
  },
  {
    "fullUrl" : "http://hl7.eu/fhir/ig/gravitate-health/Ingredient/ingredient-for-suliqua-methionine",
    "resource" : {
      "resourceType" : "Ingredient",
      "id" : "ingredient-for-suliqua-methionine",
      "meta" : {
        "profile" : ["http://hl7.org/fhir/uv/emedicinal-product-info/StructureDefinition/Ingredient-uv-epi"]
      },
      "text" : {
        "status" : "generated",
        "div" : "<div xmlns=\"http://www.w3.org/1999/xhtml\"><p><b>Generated Narrative: Ingredient</b><a name=\"ingredient-for-suliqua-methionine\"> </a></p><div style=\"display: inline-block; background-color: #d9e0e7; padding: 6px; margin: 4px; border: 1px solid #8da1b4; border-radius: 5px; line-height: 60%\"><p style=\"margin-bottom: 0px\">Resource Ingredient &quot;ingredient-for-suliqua-methionine&quot; </p><p style=\"margin-bottom: 0px\">Profile: <a href=\"https://build.fhir.org/ig/HL7/emedicinal-product-info//StructureDefinition-Ingredient-uv-epi.html\">Ingredient (ePI)</a></p></div><p><b>identifier</b>: id:\u00a0AE28F7PNPL\u00a0(use:\u00a0OFFICIAL)</p><p><b>status</b>: active</p><p><b>for</b>: </p><ul><li><a href=\"#ManufacturedItemDefinition_mid-66d97ddf0e95a23a3c0f4f2102139f34\">See above (ManufacturedItemDefinition/mid-66d97ddf0e95a23a3c0f4f2102139f34)</a></li><li><a href=\"#MedicinalProductDefinition_mp367b9089c0743a2330f4c6e82b40ee41\">See above (MedicinalProductDefinition/mp367b9089c0743a2330f4c6e82b40ee41)</a></li><li><a href=\"#AdministrableProductDefinition_ap-66d97ddf0e95a23a3c0f4f2102139f34\">See above (AdministrableProductDefinition/ap-66d97ddf0e95a23a3c0f4f2102139f34)</a></li></ul><p><b>role</b>: Excipient <span style=\"background: LightGoldenRodYellow; margin: 4px; border: 1px solid khaki\"> (rmswi#100000072082)</span></p><h3>Manufacturers</h3><table class=\"grid\"><tr><td style=\"display: none\">-</td><td><b>Manufacturer</b></td></tr><tr><td style=\"display: none\">*</td><td><a href=\"#Organization_mapi-ab61fc2db513f79636782643b3407aa5\">See above (Organization/mapi-ab61fc2db513f79636782643b3407aa5)</a></td></tr></table><blockquote><p><b>substance</b></p><h3>Codes</h3><table class=\"grid\"><tr><td style=\"display: none\">-</td><td><b>Concept</b></td></tr><tr><td style=\"display: none\">*</td><td>Methionine <span style=\"background: LightGoldenRodYellow; margin: 4px; border: 1px solid khaki\"> (beta#AE28F7PNPL)</span></td></tr></table></blockquote></div>"
      },
      "identifier" : {
        "use" : "official",
        "system" : "https://gsrs.ncats.nih.gov/ginas/app/beta",
        "value" : "AE28F7PNPL"
      },
      "status" : "active",
      "for" : [{
        "reference" : "ManufacturedItemDefinition/mid-66d97ddf0e95a23a3c0f4f2102139f34"
      },
      {
        "reference" : "MedicinalProductDefinition/mp367b9089c0743a2330f4c6e82b40ee41"
      },
      {
        "reference" : "AdministrableProductDefinition/ap-66d97ddf0e95a23a3c0f4f2102139f34"
      }],
      "role" : {
        "coding" : [{
          "system" : "https://spor.ema.europa.eu/rmswi",
          "code" : "100000072082",
          "display" : "Excipient"
        }]
      },
      "manufacturer" : [{
        "manufacturer" : {
          "reference" : "Organization/mapi-ab61fc2db513f79636782643b3407aa5"
        }
      }],
      "substance" : {
        "code" : {
          "concept" : {
            "coding" : [{
              "system" : "https://gsrs.ncats.nih.gov/ginas/app/beta",
              "code" : "AE28F7PNPL",
              "display" : "Methionine"
            }]
          }
        }
      }
    }
  },
  {
    "fullUrl" : "http://hl7.eu/fhir/ig/gravitate-health/Ingredient/ingredient-for-suliqua-metacresol",
    "resource" : {
      "resourceType" : "Ingredient",
      "id" : "ingredient-for-suliqua-metacresol",
      "meta" : {
        "profile" : ["http://hl7.org/fhir/uv/emedicinal-product-info/StructureDefinition/Ingredient-uv-epi"]
      },
      "text" : {
        "status" : "generated",
        "div" : "<div xmlns=\"http://www.w3.org/1999/xhtml\"><p><b>Generated Narrative: Ingredient</b><a name=\"ingredient-for-suliqua-metacresol\"> </a></p><div style=\"display: inline-block; background-color: #d9e0e7; padding: 6px; margin: 4px; border: 1px solid #8da1b4; border-radius: 5px; line-height: 60%\"><p style=\"margin-bottom: 0px\">Resource Ingredient &quot;ingredient-for-suliqua-metacresol&quot; </p><p style=\"margin-bottom: 0px\">Profile: <a href=\"https://build.fhir.org/ig/HL7/emedicinal-product-info//StructureDefinition-Ingredient-uv-epi.html\">Ingredient (ePI)</a></p></div><p><b>identifier</b>: id:\u00a0GGO4Y809LO\u00a0(use:\u00a0OFFICIAL)</p><p><b>status</b>: active</p><p><b>for</b>: </p><ul><li><a href=\"#ManufacturedItemDefinition_mid-66d97ddf0e95a23a3c0f4f2102139f34\">See above (ManufacturedItemDefinition/mid-66d97ddf0e95a23a3c0f4f2102139f34)</a></li><li><a href=\"#MedicinalProductDefinition_mp367b9089c0743a2330f4c6e82b40ee41\">See above (MedicinalProductDefinition/mp367b9089c0743a2330f4c6e82b40ee41)</a></li><li><a href=\"#AdministrableProductDefinition_ap-66d97ddf0e95a23a3c0f4f2102139f34\">See above (AdministrableProductDefinition/ap-66d97ddf0e95a23a3c0f4f2102139f34)</a></li></ul><p><b>role</b>: Excipient <span style=\"background: LightGoldenRodYellow; margin: 4px; border: 1px solid khaki\"> (rmswi#100000072082)</span></p><h3>Manufacturers</h3><table class=\"grid\"><tr><td style=\"display: none\">-</td><td><b>Manufacturer</b></td></tr><tr><td style=\"display: none\">*</td><td><a href=\"#Organization_mapi-ab61fc2db513f79636782643b3407aa5\">See above (Organization/mapi-ab61fc2db513f79636782643b3407aa5)</a></td></tr></table><blockquote><p><b>substance</b></p><h3>Codes</h3><table class=\"grid\"><tr><td style=\"display: none\">-</td><td><b>Concept</b></td></tr><tr><td style=\"display: none\">*</td><td>Metacresol <span style=\"background: LightGoldenRodYellow; margin: 4px; border: 1px solid khaki\"> (beta#GGO4Y809LO)</span></td></tr></table></blockquote></div>"
      },
      "identifier" : {
        "use" : "official",
        "system" : "https://gsrs.ncats.nih.gov/ginas/app/beta",
        "value" : "GGO4Y809LO"
      },
      "status" : "active",
      "for" : [{
        "reference" : "ManufacturedItemDefinition/mid-66d97ddf0e95a23a3c0f4f2102139f34"
      },
      {
        "reference" : "MedicinalProductDefinition/mp367b9089c0743a2330f4c6e82b40ee41"
      },
      {
        "reference" : "AdministrableProductDefinition/ap-66d97ddf0e95a23a3c0f4f2102139f34"
      }],
      "role" : {
        "coding" : [{
          "system" : "https://spor.ema.europa.eu/rmswi",
          "code" : "100000072082",
          "display" : "Excipient"
        }]
      },
      "manufacturer" : [{
        "manufacturer" : {
          "reference" : "Organization/mapi-ab61fc2db513f79636782643b3407aa5"
        }
      }],
      "substance" : {
        "code" : {
          "concept" : {
            "coding" : [{
              "system" : "https://gsrs.ncats.nih.gov/ginas/app/beta",
              "code" : "GGO4Y809LO",
              "display" : "Metacresol"
            }]
          }
        }
      }
    }
  },
  {
    "fullUrl" : "http://hl7.eu/fhir/ig/gravitate-health/Ingredient/ingredient-for-suliqua-zincchloride",
    "resource" : {
      "resourceType" : "Ingredient",
      "id" : "ingredient-for-suliqua-zincchloride",
      "meta" : {
        "profile" : ["http://hl7.org/fhir/uv/emedicinal-product-info/StructureDefinition/Ingredient-uv-epi"]
      },
      "text" : {
        "status" : "generated",
        "div" : "<div xmlns=\"http://www.w3.org/1999/xhtml\"><p><b>Generated Narrative: Ingredient</b><a name=\"ingredient-for-suliqua-zincchloride\"> </a></p><div style=\"display: inline-block; background-color: #d9e0e7; padding: 6px; margin: 4px; border: 1px solid #8da1b4; border-radius: 5px; line-height: 60%\"><p style=\"margin-bottom: 0px\">Resource Ingredient &quot;ingredient-for-suliqua-zincchloride&quot; </p><p style=\"margin-bottom: 0px\">Profile: <a href=\"https://build.fhir.org/ig/HL7/emedicinal-product-info//StructureDefinition-Ingredient-uv-epi.html\">Ingredient (ePI)</a></p></div><p><b>identifier</b>: id:\u00a086Q357L16B\u00a0(use:\u00a0OFFICIAL)</p><p><b>status</b>: active</p><p><b>for</b>: </p><ul><li><a href=\"#ManufacturedItemDefinition_mid-66d97ddf0e95a23a3c0f4f2102139f34\">See above (ManufacturedItemDefinition/mid-66d97ddf0e95a23a3c0f4f2102139f34)</a></li><li><a href=\"#MedicinalProductDefinition_mp367b9089c0743a2330f4c6e82b40ee41\">See above (MedicinalProductDefinition/mp367b9089c0743a2330f4c6e82b40ee41)</a></li><li><a href=\"#AdministrableProductDefinition_ap-66d97ddf0e95a23a3c0f4f2102139f34\">See above (AdministrableProductDefinition/ap-66d97ddf0e95a23a3c0f4f2102139f34)</a></li></ul><p><b>role</b>: Excipient <span style=\"background: LightGoldenRodYellow; margin: 4px; border: 1px solid khaki\"> (rmswi#100000072082)</span></p><h3>Manufacturers</h3><table class=\"grid\"><tr><td style=\"display: none\">-</td><td><b>Manufacturer</b></td></tr><tr><td style=\"display: none\">*</td><td><a href=\"#Organization_mapi-ab61fc2db513f79636782643b3407aa5\">See above (Organization/mapi-ab61fc2db513f79636782643b3407aa5)</a></td></tr></table><blockquote><p><b>substance</b></p><h3>Codes</h3><table class=\"grid\"><tr><td style=\"display: none\">-</td><td><b>Concept</b></td></tr><tr><td style=\"display: none\">*</td><td>Zinc chloride <span style=\"background: LightGoldenRodYellow; margin: 4px; border: 1px solid khaki\"> (beta#86Q357L16B)</span></td></tr></table></blockquote></div>"
      },
      "identifier" : {
        "use" : "official",
        "system" : "https://gsrs.ncats.nih.gov/ginas/app/beta",
        "value" : "86Q357L16B"
      },
      "status" : "active",
      "for" : [{
        "reference" : "ManufacturedItemDefinition/mid-66d97ddf0e95a23a3c0f4f2102139f34"
      },
      {
        "reference" : "MedicinalProductDefinition/mp367b9089c0743a2330f4c6e82b40ee41"
      },
      {
        "reference" : "AdministrableProductDefinition/ap-66d97ddf0e95a23a3c0f4f2102139f34"
      }],
      "role" : {
        "coding" : [{
          "system" : "https://spor.ema.europa.eu/rmswi",
          "code" : "100000072082",
          "display" : "Excipient"
        }]
      },
      "manufacturer" : [{
        "manufacturer" : {
          "reference" : "Organization/mapi-ab61fc2db513f79636782643b3407aa5"
        }
      }],
      "substance" : {
        "code" : {
          "concept" : {
            "coding" : [{
              "system" : "https://gsrs.ncats.nih.gov/ginas/app/beta",
              "code" : "86Q357L16B",
              "display" : "Zinc chloride"
            }]
          }
        }
      }
    }
  },
  {
    "fullUrl" : "http://hl7.eu/fhir/ig/gravitate-health/Ingredient/ingredient-for-suliqua-hydrochloricacidiarc",
    "resource" : {
      "resourceType" : "Ingredient",
      "id" : "ingredient-for-suliqua-hydrochloricacidiarc",
      "meta" : {
        "profile" : ["http://hl7.org/fhir/uv/emedicinal-product-info/StructureDefinition/Ingredient-uv-epi"]
      },
      "text" : {
        "status" : "generated",
        "div" : "<div xmlns=\"http://www.w3.org/1999/xhtml\"><p><b>Generated Narrative: Ingredient</b><a name=\"ingredient-for-suliqua-hydrochloricacidiarc\"> </a></p><div style=\"display: inline-block; background-color: #d9e0e7; padding: 6px; margin: 4px; border: 1px solid #8da1b4; border-radius: 5px; line-height: 60%\"><p style=\"margin-bottom: 0px\">Resource Ingredient &quot;ingredient-for-suliqua-hydrochloricacidiarc&quot; </p><p style=\"margin-bottom: 0px\">Profile: <a href=\"https://build.fhir.org/ig/HL7/emedicinal-product-info//StructureDefinition-Ingredient-uv-epi.html\">Ingredient (ePI)</a></p></div><p><b>identifier</b>: id:\u00a0QTT17582CB\u00a0(use:\u00a0OFFICIAL)</p><p><b>status</b>: active</p><p><b>for</b>: </p><ul><li><a href=\"#ManufacturedItemDefinition_mid-66d97ddf0e95a23a3c0f4f2102139f34\">See above (ManufacturedItemDefinition/mid-66d97ddf0e95a23a3c0f4f2102139f34)</a></li><li><a href=\"#MedicinalProductDefinition_mp367b9089c0743a2330f4c6e82b40ee41\">See above (MedicinalProductDefinition/mp367b9089c0743a2330f4c6e82b40ee41)</a></li><li><a href=\"#AdministrableProductDefinition_ap-66d97ddf0e95a23a3c0f4f2102139f34\">See above (AdministrableProductDefinition/ap-66d97ddf0e95a23a3c0f4f2102139f34)</a></li></ul><p><b>role</b>: Excipient <span style=\"background: LightGoldenRodYellow; margin: 4px; border: 1px solid khaki\"> (rmswi#100000072082)</span></p><h3>Manufacturers</h3><table class=\"grid\"><tr><td style=\"display: none\">-</td><td><b>Manufacturer</b></td></tr><tr><td style=\"display: none\">*</td><td><a href=\"#Organization_mapi-ab61fc2db513f79636782643b3407aa5\">See above (Organization/mapi-ab61fc2db513f79636782643b3407aa5)</a></td></tr></table><blockquote><p><b>substance</b></p><h3>Codes</h3><table class=\"grid\"><tr><td style=\"display: none\">-</td><td><b>Concept</b></td></tr><tr><td style=\"display: none\">*</td><td>HYDROCHLORIC ACID [IARC] <span style=\"background: LightGoldenRodYellow; margin: 4px; border: 1px solid khaki\"> (beta#QTT17582CB)</span></td></tr></table></blockquote></div>"
      },
      "identifier" : {
        "use" : "official",
        "system" : "https://gsrs.ncats.nih.gov/ginas/app/beta",
        "value" : "QTT17582CB"
      },
      "status" : "active",
      "for" : [{
        "reference" : "ManufacturedItemDefinition/mid-66d97ddf0e95a23a3c0f4f2102139f34"
      },
      {
        "reference" : "MedicinalProductDefinition/mp367b9089c0743a2330f4c6e82b40ee41"
      },
      {
        "reference" : "AdministrableProductDefinition/ap-66d97ddf0e95a23a3c0f4f2102139f34"
      }],
      "role" : {
        "coding" : [{
          "system" : "https://spor.ema.europa.eu/rmswi",
          "code" : "100000072082",
          "display" : "Excipient"
        }]
      },
      "manufacturer" : [{
        "manufacturer" : {
          "reference" : "Organization/mapi-ab61fc2db513f79636782643b3407aa5"
        }
      }],
      "substance" : {
        "code" : {
          "concept" : {
            "coding" : [{
              "system" : "https://gsrs.ncats.nih.gov/ginas/app/beta",
              "code" : "QTT17582CB",
              "display" : "HYDROCHLORIC ACID [IARC]"
            }]
          }
        }
      }
    }
  },
  {
    "fullUrl" : "http://hl7.eu/fhir/ig/gravitate-health/Ingredient/ingredient-for-suliqua-sterilewaterforinjection",
    "resource" : {
      "resourceType" : "Ingredient",
      "id" : "ingredient-for-suliqua-sterilewaterforinjection",
      "meta" : {
        "profile" : ["http://hl7.org/fhir/uv/emedicinal-product-info/StructureDefinition/Ingredient-uv-epi"]
      },
      "text" : {
        "status" : "generated",
        "div" : "<div xmlns=\"http://www.w3.org/1999/xhtml\"><p><b>Generated Narrative: Ingredient</b><a name=\"ingredient-for-suliqua-sterilewaterforinjection\"> </a></p><div style=\"display: inline-block; background-color: #d9e0e7; padding: 6px; margin: 4px; border: 1px solid #8da1b4; border-radius: 5px; line-height: 60%\"><p style=\"margin-bottom: 0px\">Resource Ingredient &quot;ingredient-for-suliqua-sterilewaterforinjection&quot; </p><p style=\"margin-bottom: 0px\">Profile: <a href=\"https://build.fhir.org/ig/HL7/emedicinal-product-info//StructureDefinition-Ingredient-uv-epi.html\">Ingredient (ePI)</a></p></div><p><b>identifier</b>: id:\u00a0059QF0KO0R\u00a0(use:\u00a0OFFICIAL)</p><p><b>status</b>: active</p><p><b>for</b>: </p><ul><li><a href=\"#ManufacturedItemDefinition_mid-66d97ddf0e95a23a3c0f4f2102139f34\">See above (ManufacturedItemDefinition/mid-66d97ddf0e95a23a3c0f4f2102139f34)</a></li><li><a href=\"#MedicinalProductDefinition_mp367b9089c0743a2330f4c6e82b40ee41\">See above (MedicinalProductDefinition/mp367b9089c0743a2330f4c6e82b40ee41)</a></li><li><a href=\"#AdministrableProductDefinition_ap-66d97ddf0e95a23a3c0f4f2102139f34\">See above (AdministrableProductDefinition/ap-66d97ddf0e95a23a3c0f4f2102139f34)</a></li></ul><p><b>role</b>: Excipient <span style=\"background: LightGoldenRodYellow; margin: 4px; border: 1px solid khaki\"> (rmswi#100000072082)</span></p><h3>Manufacturers</h3><table class=\"grid\"><tr><td style=\"display: none\">-</td><td><b>Manufacturer</b></td></tr><tr><td style=\"display: none\">*</td><td><a href=\"#Organization_mapi-ab61fc2db513f79636782643b3407aa5\">See above (Organization/mapi-ab61fc2db513f79636782643b3407aa5)</a></td></tr></table><blockquote><p><b>substance</b></p><h3>Codes</h3><table class=\"grid\"><tr><td style=\"display: none\">-</td><td><b>Concept</b></td></tr><tr><td style=\"display: none\">*</td><td>STERILE WATER FOR INJECTION <span style=\"background: LightGoldenRodYellow; margin: 4px; border: 1px solid khaki\"> (beta#059QF0KO0R)</span></td></tr></table></blockquote></div>"
      },
      "identifier" : {
        "use" : "official",
        "system" : "https://gsrs.ncats.nih.gov/ginas/app/beta",
        "value" : "059QF0KO0R"
      },
      "status" : "active",
      "for" : [{
        "reference" : "ManufacturedItemDefinition/mid-66d97ddf0e95a23a3c0f4f2102139f34"
      },
      {
        "reference" : "MedicinalProductDefinition/mp367b9089c0743a2330f4c6e82b40ee41"
      },
      {
        "reference" : "AdministrableProductDefinition/ap-66d97ddf0e95a23a3c0f4f2102139f34"
      }],
      "role" : {
        "coding" : [{
          "system" : "https://spor.ema.europa.eu/rmswi",
          "code" : "100000072082",
          "display" : "Excipient"
        }]
      },
      "manufacturer" : [{
        "manufacturer" : {
          "reference" : "Organization/mapi-ab61fc2db513f79636782643b3407aa5"
        }
      }],
      "substance" : {
        "code" : {
          "concept" : {
            "coding" : [{
              "system" : "https://gsrs.ncats.nih.gov/ginas/app/beta",
              "code" : "059QF0KO0R",
              "display" : "STERILE WATER FOR INJECTION"
            }]
          }
        }
      }
    }
  },
  {
    "fullUrl" : "http://hl7.eu/fhir/ig/gravitate-health/Ingredient/ingredient-for-suliqua-sodiumhydroxide",
    "resource" : {
      "resourceType" : "Ingredient",
      "id" : "ingredient-for-suliqua-sodiumhydroxide",
      "meta" : {
        "profile" : ["http://hl7.org/fhir/uv/emedicinal-product-info/StructureDefinition/Ingredient-uv-epi"]
      },
      "text" : {
        "status" : "generated",
        "div" : "<div xmlns=\"http://www.w3.org/1999/xhtml\"><p><b>Generated Narrative: Ingredient</b><a name=\"ingredient-for-suliqua-sodiumhydroxide\"> </a></p><div style=\"display: inline-block; background-color: #d9e0e7; padding: 6px; margin: 4px; border: 1px solid #8da1b4; border-radius: 5px; line-height: 60%\"><p style=\"margin-bottom: 0px\">Resource Ingredient &quot;ingredient-for-suliqua-sodiumhydroxide&quot; </p><p style=\"margin-bottom: 0px\">Profile: <a href=\"https://build.fhir.org/ig/HL7/emedicinal-product-info//StructureDefinition-Ingredient-uv-epi.html\">Ingredient (ePI)</a></p></div><p><b>identifier</b>: id:\u00a055X04QC32I\u00a0(use:\u00a0OFFICIAL)</p><p><b>status</b>: active</p><p><b>for</b>: </p><ul><li><a href=\"#ManufacturedItemDefinition_mid-66d97ddf0e95a23a3c0f4f2102139f34\">See above (ManufacturedItemDefinition/mid-66d97ddf0e95a23a3c0f4f2102139f34)</a></li><li><a href=\"#MedicinalProductDefinition_mp367b9089c0743a2330f4c6e82b40ee41\">See above (MedicinalProductDefinition/mp367b9089c0743a2330f4c6e82b40ee41)</a></li><li><a href=\"#AdministrableProductDefinition_ap-66d97ddf0e95a23a3c0f4f2102139f34\">See above (AdministrableProductDefinition/ap-66d97ddf0e95a23a3c0f4f2102139f34)</a></li></ul><p><b>role</b>: Excipient <span style=\"background: LightGoldenRodYellow; margin: 4px; border: 1px solid khaki\"> (rmswi#100000072082)</span></p><h3>Manufacturers</h3><table class=\"grid\"><tr><td style=\"display: none\">-</td><td><b>Manufacturer</b></td></tr><tr><td style=\"display: none\">*</td><td><a href=\"#Organization_mapi-ab61fc2db513f79636782643b3407aa5\">See above (Organization/mapi-ab61fc2db513f79636782643b3407aa5)</a></td></tr></table><blockquote><p><b>substance</b></p><h3>Codes</h3><table class=\"grid\"><tr><td style=\"display: none\">-</td><td><b>Concept</b></td></tr><tr><td style=\"display: none\">*</td><td>Sodium hydroxide <span style=\"background: LightGoldenRodYellow; margin: 4px; border: 1px solid khaki\"> (beta#55X04QC32I)</span></td></tr></table></blockquote></div>"
      },
      "identifier" : {
        "use" : "official",
        "system" : "https://gsrs.ncats.nih.gov/ginas/app/beta",
        "value" : "55X04QC32I"
      },
      "status" : "active",
      "for" : [{
        "reference" : "ManufacturedItemDefinition/mid-66d97ddf0e95a23a3c0f4f2102139f34"
      },
      {
        "reference" : "MedicinalProductDefinition/mp367b9089c0743a2330f4c6e82b40ee41"
      },
      {
        "reference" : "AdministrableProductDefinition/ap-66d97ddf0e95a23a3c0f4f2102139f34"
      }],
      "role" : {
        "coding" : [{
          "system" : "https://spor.ema.europa.eu/rmswi",
          "code" : "100000072082",
          "display" : "Excipient"
        }]
      },
      "manufacturer" : [{
        "manufacturer" : {
          "reference" : "Organization/mapi-ab61fc2db513f79636782643b3407aa5"
        }
      }],
      "substance" : {
        "code" : {
          "concept" : {
            "coding" : [{
              "system" : "https://gsrs.ncats.nih.gov/ginas/app/beta",
              "code" : "55X04QC32I",
              "display" : "Sodium hydroxide"
            }]
          }
        }
      }
    }
  },
  {
    "fullUrl" : "http://hl7.eu/fhir/ig/gravitate-health/AdministrableProductDefinition/ap-66d97ddf0e95a23a3c0f4f2102139f34",
    "resource" : {
      "resourceType" : "AdministrableProductDefinition",
      "id" : "ap-66d97ddf0e95a23a3c0f4f2102139f34",
      "meta" : {
        "profile" : ["http://hl7.org/fhir/uv/emedicinal-product-info/StructureDefinition/AdministrableProductDefinition-uv-epi"]
      },
      "text" : {
        "status" : "generated",
        "div" : "<div xmlns=\"http://www.w3.org/1999/xhtml\"><p><b>Generated Narrative: AdministrableProductDefinition</b><a name=\"ap-66d97ddf0e95a23a3c0f4f2102139f34\"> </a></p><div style=\"display: inline-block; background-color: #d9e0e7; padding: 6px; margin: 4px; border: 1px solid #8da1b4; border-radius: 5px; line-height: 60%\"><p style=\"margin-bottom: 0px\">Resource AdministrableProductDefinition &quot;ap-66d97ddf0e95a23a3c0f4f2102139f34&quot; </p><p style=\"margin-bottom: 0px\">Profile: <a href=\"https://build.fhir.org/ig/HL7/emedicinal-product-info//StructureDefinition-AdministrableProductDefinition-uv-epi.html\">AdministrableProductDefinition (ePI)</a></p></div><p><b>identifier</b>: id:\u00a0TBD</p><p><b>status</b>: active</p><p><b>formOf</b>: <a href=\"#MedicinalProductDefinition_mp367b9089c0743a2330f4c6e82b40ee41\">See above (MedicinalProductDefinition/mp367b9089c0743a2330f4c6e82b40ee41)</a></p><p><b>administrableDoseForm</b>: Solution for injection <span style=\"background: LightGoldenRodYellow; margin: 4px; border: 1px solid khaki\"> (rmswi#100000073863)</span></p><p><b>unitOfPresentation</b>: Pen <span style=\"background: LightGoldenRodYellow; margin: 4px; border: 1px solid khaki\"> (rmswi#200000002135)</span></p><p><b>producedFrom</b>: <a href=\"#ManufacturedItemDefinition_mid-66d97ddf0e95a23a3c0f4f2102139f34\">See above (ManufacturedItemDefinition/mid-66d97ddf0e95a23a3c0f4f2102139f34)</a></p><blockquote><p><b>routeOfAdministration</b></p><p><b>code</b>: Subcutaneous use <span style=\"background: LightGoldenRodYellow; margin: 4px; border: 1px solid khaki\"> (rmswi#100000073633)</span></p><h3>TargetSpecies</h3><table class=\"grid\"><tr><td style=\"display: none\">-</td><td><b>Code</b></td></tr><tr><td style=\"display: none\">*</td><td>Human <span style=\"background: LightGoldenRodYellow; margin: 4px; border: 1px solid khaki\"> (rmswi#100000109093)</span></td></tr></table></blockquote></div>"
      },
      "identifier" : [{
        "system" : "https://www.who-umc.org/phpid",
        "value" : "TBD"
      }],
      "status" : "active",
      "formOf" : [{
        "reference" : "MedicinalProductDefinition/mp367b9089c0743a2330f4c6e82b40ee41"
      }],
      "administrableDoseForm" : {
        "coding" : [{
          "system" : "https://spor.ema.europa.eu/rmswi",
          "code" : "100000073863",
          "display" : "Solution for injection"
        }]
      },
      "unitOfPresentation" : {
        "coding" : [{
          "system" : "https://spor.ema.europa.eu/rmswi",
          "code" : "200000002135",
          "display" : "Pen"
        }]
      },
      "producedFrom" : [{
        "reference" : "ManufacturedItemDefinition/mid-66d97ddf0e95a23a3c0f4f2102139f34"
      }],
      "routeOfAdministration" : [{
        "code" : {
          "coding" : [{
            "system" : "https://spor.ema.europa.eu/rmswi",
            "code" : "100000073633",
            "display" : "Subcutaneous use"
          }]
        },
        "targetSpecies" : [{
          "code" : {
            "coding" : [{
              "system" : "https://spor.ema.europa.eu/rmswi",
              "code" : "100000109093",
              "display" : "Human"
            }]
          }
        }]
      }]
    }
  },
  {
    "fullUrl" : "http://hl7.eu/fhir/ig/gravitate-health/RegulatedAuthorization/authorizationa9517814b36bf7381b0a946a09cda2e4",
    "resource" : {
      "resourceType" : "RegulatedAuthorization",
      "id" : "authorizationa9517814b36bf7381b0a946a09cda2e4",
      "meta" : {
        "profile" : ["http://hl7.org/fhir/uv/emedicinal-product-info/StructureDefinition/RegulatedAuthorization-uv-epi"]
      },
      "text" : {
        "status" : "generated",
        "div" : "<div xmlns=\"http://www.w3.org/1999/xhtml\"><p><b>Generated Narrative: RegulatedAuthorization</b><a name=\"authorizationa9517814b36bf7381b0a946a09cda2e4\"> </a></p><div style=\"display: inline-block; background-color: #d9e0e7; padding: 6px; margin: 4px; border: 1px solid #8da1b4; border-radius: 5px; line-height: 60%\"><p style=\"margin-bottom: 0px\">Resource RegulatedAuthorization &quot;authorizationa9517814b36bf7381b0a946a09cda2e4&quot; </p><p style=\"margin-bottom: 0px\">Profile: <a href=\"https://build.fhir.org/ig/HL7/emedicinal-product-info//StructureDefinition-RegulatedAuthorization-uv-epi.html\">RegulatedAuthorization (ePI)</a></p></div><p><b>identifier</b>: id:\u00a0EU/1/16/1157/002\u00a0(use:\u00a0OFFICIAL)</p><p><b>subject</b>: <a href=\"#MedicinalProductDefinition_mp367b9089c0743a2330f4c6e82b40ee41\">See above (MedicinalProductDefinition/mp367b9089c0743a2330f4c6e82b40ee41)</a></p><p><b>type</b>: Marketing Authorisation <span style=\"background: LightGoldenRodYellow; margin: 4px; border: 1px solid khaki\"> (rmswi#100000072062)</span></p><p><b>status</b>: Active <span style=\"background: LightGoldenRodYellow; margin: 4px; border: 1px solid khaki\"> (<a href=\"http://hl7.org/fhir/R5/codesystem-publication-status.html\">PublicationStatus</a>#active)</span></p><p><b>statusDate</b>: 2017-01-11 13:28:17+0000</p><p><b>holder</b>: <a href=\"#Organization_mah-16019cea3a857659d2c5a2018c2260df\">See above (Organization/mah-16019cea3a857659d2c5a2018c2260df)</a></p><p><b>regulator</b>: <a href=\"#Organization_mra-ff74c5498eb163c2fb470e9fd175a0c1\">See above (Organization/mra-ff74c5498eb163c2fb470e9fd175a0c1)</a></p></div>"
      },
      "identifier" : [{
        "use" : "official",
        "system" : "https://spor.ema.europa.eu/pmswi",
        "value" : "EU/1/16/1157/002"
      }],
      "subject" : [{
        "reference" : "MedicinalProductDefinition/mp367b9089c0743a2330f4c6e82b40ee41"
      }],
      "type" : {
        "coding" : [{
          "system" : "https://spor.ema.europa.eu/rmswi",
          "code" : "100000072062",
          "display" : "Marketing Authorisation"
        }]
      },
      "status" : {
        "coding" : [{
          "system" : "http://hl7.org/fhir/publication-status",
          "code" : "active",
          "display" : "Active"
        }]
      },
      "statusDate" : "2017-01-11T13:28:17Z",
      "holder" : {
        "reference" : "Organization/mah-16019cea3a857659d2c5a2018c2260df"
      },
      "regulator" : {
        "reference" : "Organization/mra-ff74c5498eb163c2fb470e9fd175a0c1"
      }
    }
  },
  {
    "fullUrl" : "http://hl7.eu/fhir/ig/gravitate-health/Organization/mah-16019cea3a857659d2c5a2018c2260df",
    "resource" : {
      "resourceType" : "Organization",
      "id" : "mah-16019cea3a857659d2c5a2018c2260df",
      "meta" : {
        "profile" : ["http://hl7.org/fhir/uv/emedicinal-product-info/StructureDefinition/Organization-uv-epi"]
      },
      "text" : {
        "status" : "generated",
        "div" : "<div xmlns=\"http://www.w3.org/1999/xhtml\"><p><b>Generated Narrative: Organization</b><a name=\"mah-16019cea3a857659d2c5a2018c2260df\"> </a></p><div style=\"display: inline-block; background-color: #d9e0e7; padding: 6px; margin: 4px; border: 1px solid #8da1b4; border-radius: 5px; line-height: 60%\"><p style=\"margin-bottom: 0px\">Resource Organization &quot;mah-16019cea3a857659d2c5a2018c2260df&quot; </p><p style=\"margin-bottom: 0px\">Profile: <a href=\"https://build.fhir.org/ig/HL7/emedicinal-product-info//StructureDefinition-Organization-uv-epi.html\">Organization (ePI)</a></p></div><p><b>identifier</b>: id:\u00a0ORG-100000789\u00a0(use:\u00a0OFFICIAL)</p><p><b>active</b>: true</p><p><b>type</b>: Marketing authorisation holder <span style=\"background: LightGoldenRodYellow; margin: 4px; border: 1px solid khaki\"> (rmswi#220000000034)</span></p><p><b>name</b>: Sanofi-Aventis Groupe</p><h3>Contacts</h3><table class=\"grid\"><tr><td style=\"display: none\">-</td><td><b>Address</b></td></tr><tr><td style=\"display: none\">*</td><td>54, rue La Boétie F-75008 Paris FR(WORK)</td></tr></table></div>"
      },
      "identifier" : [{
        "use" : "official",
        "system" : "https://spor.ema.europa.eu/omswi",
        "value" : "ORG-100000789"
      }],
      "active" : true,
      "type" : [{
        "coding" : [{
          "system" : "https://spor.ema.europa.eu/rmswi",
          "code" : "220000000034",
          "display" : "Marketing authorisation holder"
        }]
      }],
      "name" : "Sanofi-Aventis Groupe",
      "contact" : [{
        "address" : {
          "use" : "work",
          "type" : "physical",
          "text" : "54, rue La Boétie F-75008 Paris FR",
          "line" : ["54, rue La Boétie F-75008"],
          "city" : "Paris",
          "country" : "FR"
        }
      }]
    }
  },
  {
    "fullUrl" : "http://hl7.eu/fhir/ig/gravitate-health/Organization/mapi-ab61fc2db513f79636782643b3407aa5",
    "resource" : {
      "resourceType" : "Organization",
      "id" : "mapi-ab61fc2db513f79636782643b3407aa5",
      "meta" : {
        "profile" : ["http://hl7.org/fhir/uv/emedicinal-product-info/StructureDefinition/Organization-uv-epi"]
      },
      "text" : {
        "status" : "generated",
        "div" : "<div xmlns=\"http://www.w3.org/1999/xhtml\"><p><b>Generated Narrative: Organization</b><a name=\"mapi-ab61fc2db513f79636782643b3407aa5\"> </a></p><div style=\"display: inline-block; background-color: #d9e0e7; padding: 6px; margin: 4px; border: 1px solid #8da1b4; border-radius: 5px; line-height: 60%\"><p style=\"margin-bottom: 0px\">Resource Organization &quot;mapi-ab61fc2db513f79636782643b3407aa5&quot; </p><p style=\"margin-bottom: 0px\">Profile: <a href=\"https://build.fhir.org/ig/HL7/emedicinal-product-info//StructureDefinition-Organization-uv-epi.html\">Organization (ePI)</a></p></div><p><b>identifier</b>: id:\u00a0ORG-100001175\u00a0(use:\u00a0OFFICIAL)</p><p><b>active</b>: true</p><p><b>type</b>: Manufacturer <span style=\"background: LightGoldenRodYellow; margin: 4px; border: 1px solid khaki\"> (rmswi#220000000033)</span></p><p><b>name</b>: Sanofi-Aventis Deutschland GmbH</p><h3>Contacts</h3><table class=\"grid\"><tr><td style=\"display: none\">-</td><td><b>Address</b></td></tr><tr><td style=\"display: none\">*</td><td>Brueningstrasse 50, Industriepark Höchst Frankfurt am Main de(WORK)</td></tr></table></div>"
      },
      "identifier" : [{
        "use" : "official",
        "system" : "https://spor.ema.europa.eu/omswi",
        "value" : "ORG-100001175"
      }],
      "active" : true,
      "type" : [{
        "coding" : [{
          "system" : "https://spor.ema.europa.eu/rmswi",
          "code" : "220000000033",
          "display" : "Manufacturer"
        }]
      }],
      "name" : "Sanofi-Aventis Deutschland GmbH",
      "contact" : [{
        "address" : {
          "use" : "work",
          "type" : "physical",
          "text" : "Brueningstrasse 50, Industriepark Höchst Frankfurt am Main de",
          "line" : ["Brueningstrasse 50, Industriepark Höchst"],
          "city" : "Frankfurt am Main",
          "postalCode" : "65926.0",
          "country" : "de"
        }
      }]
    }
  },
  {
    "fullUrl" : "http://hl7.eu/fhir/ig/gravitate-health/Organization/mbr-b9c6316075799071b2706c402f9fa388",
    "resource" : {
      "resourceType" : "Organization",
      "id" : "mbr-b9c6316075799071b2706c402f9fa388",
      "meta" : {
        "profile" : ["http://hl7.org/fhir/uv/emedicinal-product-info/StructureDefinition/Organization-uv-epi"]
      },
      "text" : {
        "status" : "generated",
        "div" : "<div xmlns=\"http://www.w3.org/1999/xhtml\"><p><b>Generated Narrative: Organization</b><a name=\"mbr-b9c6316075799071b2706c402f9fa388\"> </a></p><div style=\"display: inline-block; background-color: #d9e0e7; padding: 6px; margin: 4px; border: 1px solid #8da1b4; border-radius: 5px; line-height: 60%\"><p style=\"margin-bottom: 0px\">Resource Organization &quot;mbr-b9c6316075799071b2706c402f9fa388&quot; </p><p style=\"margin-bottom: 0px\">Profile: <a href=\"https://build.fhir.org/ig/HL7/emedicinal-product-info//StructureDefinition-Organization-uv-epi.html\">Organization (ePI)</a></p></div><p><b>identifier</b>: id:\u00a0ORG-100001175\u00a0(use:\u00a0OFFICIAL)</p><p><b>active</b>: true</p><p><b>type</b>: Manufacturer <span style=\"background: LightGoldenRodYellow; margin: 4px; border: 1px solid khaki\"> (rmswi#220000000033)</span></p><p><b>name</b>: Sanofi-Aventis Deutschland GmbH</p><h3>Contacts</h3><table class=\"grid\"><tr><td style=\"display: none\">-</td><td><b>Address</b></td></tr><tr><td style=\"display: none\">*</td><td>Brueningstrasse 50, Industriepark Höchst Frankfurt am Main de(WORK)</td></tr></table></div>"
      },
      "identifier" : [{
        "use" : "official",
        "system" : "https://spor.ema.europa.eu/omswi",
        "value" : "ORG-100001175"
      }],
      "active" : true,
      "type" : [{
        "coding" : [{
          "system" : "https://spor.ema.europa.eu/rmswi",
          "code" : "220000000033",
          "display" : "Manufacturer"
        }]
      }],
      "name" : "Sanofi-Aventis Deutschland GmbH",
      "contact" : [{
        "address" : {
          "use" : "work",
          "type" : "physical",
          "text" : "Brueningstrasse 50, Industriepark Höchst Frankfurt am Main de",
          "line" : ["Brueningstrasse 50, Industriepark Höchst"],
          "city" : "Frankfurt am Main",
          "postalCode" : "65927.0",
          "country" : "de"
        }
      }]
    }
  },
  {
    "fullUrl" : "http://hl7.eu/fhir/ig/gravitate-health/Organization/mra-ff74c5498eb163c2fb470e9fd175a0c1",
    "resource" : {
      "resourceType" : "Organization",
      "id" : "mra-ff74c5498eb163c2fb470e9fd175a0c1",
      "meta" : {
        "profile" : ["http://hl7.org/fhir/uv/emedicinal-product-info/StructureDefinition/Organization-uv-epi"]
      },
      "text" : {
        "status" : "generated",
        "div" : "<div xmlns=\"http://www.w3.org/1999/xhtml\"><p><b>Generated Narrative: Organization</b><a name=\"mra-ff74c5498eb163c2fb470e9fd175a0c1\"> </a></p><div style=\"display: inline-block; background-color: #d9e0e7; padding: 6px; margin: 4px; border: 1px solid #8da1b4; border-radius: 5px; line-height: 60%\"><p style=\"margin-bottom: 0px\">Resource Organization &quot;mra-ff74c5498eb163c2fb470e9fd175a0c1&quot; </p><p style=\"margin-bottom: 0px\">Profile: <a href=\"https://build.fhir.org/ig/HL7/emedicinal-product-info//StructureDefinition-Organization-uv-epi.html\">Organization (ePI)</a></p></div><p><b>identifier</b>: id:\u00a0ORG-100013412\u00a0(use:\u00a0OFFICIAL)</p><p><b>active</b>: true</p><p><b>type</b>: Medicines Regulatory Authority <span style=\"background: LightGoldenRodYellow; margin: 4px; border: 1px solid khaki\"> (rmswi#220000000032)</span></p><p><b>name</b>: European Medicines Agency</p><h3>Contacts</h3><table class=\"grid\"><tr><td style=\"display: none\">-</td><td><b>Address</b></td></tr><tr><td style=\"display: none\">*</td><td>Carretera De Martorell 41 61, Poligono Industrial Nord-Est Amsterdam nl(WORK)</td></tr></table></div>"
      },
      "identifier" : [{
        "use" : "official",
        "system" : "https://spor.ema.europa.eu/omswi",
        "value" : "ORG-100013412"
      }],
      "active" : true,
      "type" : [{
        "coding" : [{
          "system" : "https://spor.ema.europa.eu/rmswi",
          "code" : "220000000032",
          "display" : "Medicines Regulatory Authority"
        }]
      }],
      "name" : "European Medicines Agency",
      "contact" : [{
        "address" : {
          "use" : "work",
          "type" : "physical",
          "text" : "Carretera De Martorell 41 61, Poligono Industrial Nord-Est Amsterdam nl",
          "line" : ["Carretera De Martorell 41 61, Poligono Industrial Nord-Est"],
          "city" : "Amsterdam",
          "postalCode" : "1083.0",
          "country" : "nl"
        }
      }]
    }
  },
  {
    "fullUrl" : "http://hl7.eu/fhir/ig/gravitate-health/PackagedProductDefinition/ppd-8c4132a54faf3c7e493f1831dcb0425d",
    "resource" : {
      "resourceType" : "PackagedProductDefinition",
      "id" : "ppd-8c4132a54faf3c7e493f1831dcb0425d",
      "meta" : {
        "profile" : ["http://hl7.org/fhir/uv/emedicinal-product-info/StructureDefinition/PackagedProductDefinition-uv-epi"]
      },
      "text" : {
        "status" : "generated",
        "div" : "<div xmlns=\"http://www.w3.org/1999/xhtml\"><p><b>Generated Narrative: PackagedProductDefinition</b><a name=\"ppd-8c4132a54faf3c7e493f1831dcb0425d\"> </a></p><div style=\"display: inline-block; background-color: #d9e0e7; padding: 6px; margin: 4px; border: 1px solid #8da1b4; border-radius: 5px; line-height: 60%\"><p style=\"margin-bottom: 0px\">Resource PackagedProductDefinition &quot;ppd-8c4132a54faf3c7e493f1831dcb0425d&quot; </p><p style=\"margin-bottom: 0px\">Profile: <a href=\"https://build.fhir.org/ig/HL7/emedicinal-product-info//StructureDefinition-PackagedProductDefinition-uv-epi.html\">PackagedProductDefinition (ePI)</a></p></div><p><b>identifier</b>: id:\u00a0EU/1/16/1157/002\u00a0(use:\u00a0OFFICIAL)</p><p><b>name</b>: 3 ml cartridge (glass) in a pre-filled pen</p><p><b>type</b>: Chemical Medicinal Prodcut <span style=\"background: LightGoldenRodYellow; margin: 4px; border: 1px solid khaki\"> (rmswi#100000155527)</span></p><p><b>packageFor</b>: <a href=\"#MedicinalProductDefinition_mp367b9089c0743a2330f4c6e82b40ee41\">See above (MedicinalProductDefinition/mp367b9089c0743a2330f4c6e82b40ee41)</a></p><p><b>status</b>: Active <span style=\"background: LightGoldenRodYellow; margin: 4px; border: 1px solid khaki\"> (<a href=\"http://hl7.org/fhir/R5/codesystem-publication-status.html\">PublicationStatus</a>#active)</span></p><p><b>statusDate</b>: 2015-02-07 13:28:17+0000</p><p><b>containedItemQuantity</b>: 3 ml<span style=\"background: LightGoldenRodYellow\"> (Details: UCUM code ml = 'ml')</span></p><p><b>description</b>: Type I colourless glass cartridge with a black plunger (bromobutyl rubber) and a flanged cap (aluminium) with inserted laminated sealing disks (bromobutyl rubber on the medicinal product side and polyisoprene on the outside) containing 3 ml of solution. Each cartridge is assembled into a disposable pen.</p><p><b>copackagedIndicator</b>: false</p><blockquote><p><b>packaging</b></p><p><b>identifier</b>: id:\u00a0mock-id</p><p><b>type</b>: Box <span style=\"background: LightGoldenRodYellow; margin: 4px; border: 1px solid khaki\"> (rmswi#100000073498)</span></p><p><b>quantity</b>: 1</p><h3>Packagings</h3><table class=\"grid\"><tr><td style=\"display: none\">-</td><td><b>Identifier</b></td><td><b>Type</b></td><td><b>Quantity</b></td><td><b>Material</b></td></tr><tr><td style=\"display: none\">*</td><td>id:\u00a0EU/1/16/1157/002</td><td>Pre-filled pen <span style=\"background: LightGoldenRodYellow; margin: 4px; border: 1px solid khaki\"> (rmswi#100000073543)</span></td><td>5</td><td>Glass type 1 <span style=\"background: LightGoldenRodYellow; margin: 4px; border: 1px solid khaki\"> (rmswi#200000003204)</span></td></tr></table></blockquote></div>"
      },
      "identifier" : [{
        "use" : "official",
        "system" : "https://spor.ema.europa.eu/pmswi",
        "value" : "EU/1/16/1157/002"
      }],
      "name" : "3 ml cartridge (glass) in a pre-filled pen",
      "type" : {
        "coding" : [{
          "system" : "https://spor.ema.europa.eu/rmswi",
          "code" : "100000155527",
          "display" : "Chemical Medicinal Prodcut"
        }]
      },
      "packageFor" : [{
        "reference" : "MedicinalProductDefinition/mp367b9089c0743a2330f4c6e82b40ee41"
      }],
      "status" : {
        "coding" : [{
          "system" : "http://hl7.org/fhir/publication-status",
          "code" : "active",
          "display" : "Active"
        }]
      },
      "statusDate" : "2015-02-07T13:28:17Z",
      "containedItemQuantity" : [{
        "value" : 3,
        "system" : "http://unitsofmeasure.org",
        "code" : "ml"
      }],
      "description" : "Type I colourless glass cartridge with a black plunger (bromobutyl rubber) and a flanged cap (aluminium) with inserted laminated sealing disks (bromobutyl rubber on the medicinal product side and polyisoprene on the outside) containing 3 ml of solution. Each cartridge is assembled into a disposable pen.",
      "copackagedIndicator" : false,
      "packaging" : {
        "identifier" : [{
          "system" : "https://spor.ema.europa.eu/pmswi",
          "value" : "mock-id"
        }],
        "type" : {
          "coding" : [{
            "system" : "https://spor.ema.europa.eu/rmswi",
            "code" : "100000073498",
            "display" : "Box"
          }]
        },
        "quantity" : 1,
        "packaging" : [{
          "identifier" : [{
            "system" : "https://spor.ema.europa.eu/pmswi",
            "value" : "EU/1/16/1157/002"
          }],
          "type" : {
            "coding" : [{
              "system" : "https://spor.ema.europa.eu/rmswi",
              "code" : "100000073543",
              "display" : "Pre-filled pen"
            }]
          },
          "quantity" : 5,
          "material" : [{
            "coding" : [{
              "system" : "https://spor.ema.europa.eu/rmswi",
              "code" : "200000003204",
              "display" : "Glass type 1"
            }]
          }]
        }]
      }
    }
  },
  {
    "fullUrl" : "http://hl7.eu/fhir/ig/gravitate-health/MedicinalProductDefinition/mp367b9089c0743a2330f4c6e82b40ee41",
    "resource" : {
      "resourceType" : "MedicinalProductDefinition",
      "id" : "mp367b9089c0743a2330f4c6e82b40ee41",
      "meta" : {
        "profile" : ["http://hl7.org/fhir/uv/emedicinal-product-info/StructureDefinition/MedicinalProductDefinition-uv-epi"]
      },
      "text" : {
        "status" : "generated",
        "div" : "<div xmlns=\"http://www.w3.org/1999/xhtml\"><p><b>Generated Narrative: MedicinalProductDefinition</b><a name=\"mp367b9089c0743a2330f4c6e82b40ee41\"> </a></p><div style=\"display: inline-block; background-color: #d9e0e7; padding: 6px; margin: 4px; border: 1px solid #8da1b4; border-radius: 5px; line-height: 60%\"><p style=\"margin-bottom: 0px\">Resource MedicinalProductDefinition &quot;mp367b9089c0743a2330f4c6e82b40ee41&quot; </p><p style=\"margin-bottom: 0px\">Profile: <a href=\"https://build.fhir.org/ig/HL7/emedicinal-product-info//StructureDefinition-MedicinalProductDefinition-uv-epi.html\">MedicinalProductDefinition (ePI)</a></p></div><p><b>identifier</b>: id:\u00a0EU/1/16/1157/002</p><p><b>type</b>: Medicinal Product <span style=\"background: LightGoldenRodYellow; margin: 4px; border: 1px solid khaki\"> (<a href=\"http://hl7.org/fhir/R5/codesystem-medicinal-product-type.html\">Medicinal Product Type</a>#MedicinalProduct)</span></p><p><b>domain</b>: Human use <span style=\"background: LightGoldenRodYellow; margin: 4px; border: 1px solid khaki\"> (<a href=\"http://hl7.org/fhir/R5/codesystem-medicinal-product-domain.html\">Medicinal Product Domain</a>#Human)</span></p><p><b>status</b>: active <span style=\"background: LightGoldenRodYellow; margin: 4px; border: 1px solid khaki\"> (<a href=\"http://hl7.org/fhir/R5/codesystem-publication-status.html\">PublicationStatus</a>#active)</span></p><p><b>indication</b>: Suliqua is indicated for the treatment of adults with insufficiently controlled type 2 diabetes mellitus to improve glycaemic control as an adjunct to diet and exercise in addition to metformin with or without SGLT-2 inhibitors.</p><p><b>legalStatusOfSupply</b>: Medicinal product subject to medical prescription <span style=\"background: LightGoldenRodYellow; margin: 4px; border: 1px solid khaki\"> (rmswi#100000072084)</span></p><p><b>classification</b>: insulin glargine and lixisenatide <span style=\"background: LightGoldenRodYellow; margin: 4px; border: 1px solid khaki\"> (<a href=\"http://terminology.hl7.org/5.3.0/CodeSystem-v3-WC.html\">WHO ATC</a>#A10AE54)</span></p><blockquote><p><b>name</b></p><p><b>productName</b>: Suliqua 100 units/ml + 50 micrograms/ml solution for injection in a pre-filled pen</p><p><b>type</b>: Full name <span style=\"background: LightGoldenRodYellow; margin: 4px; border: 1px solid khaki\"> (220000000000#220000000001)</span></p><blockquote><p><b>part</b></p><p><b>part</b>: Suliqua</p><p><b>type</b>: Invented name part <span style=\"background: LightGoldenRodYellow; margin: 4px; border: 1px solid khaki\"> (220000000000#220000000002)</span></p></blockquote><blockquote><p><b>part</b></p><p><b>part</b>: Insulin glargine, Lixisenatide</p><p><b>type</b>: Scientific name part <span style=\"background: LightGoldenRodYellow; margin: 4px; border: 1px solid khaki\"> (220000000000#220000000003)</span></p></blockquote><blockquote><p><b>part</b></p><p><b>part</b>: 100 units/ml + 50 ug/ml</p><p><b>type</b>: Strength part <span style=\"background: LightGoldenRodYellow; margin: 4px; border: 1px solid khaki\"> (220000000000#220000000004)</span></p></blockquote><blockquote><p><b>part</b></p><p><b>part</b>: Solution for injection</p><p><b>type</b>: Pharmaceutical dose form part <span style=\"background: LightGoldenRodYellow; margin: 4px; border: 1px solid khaki\"> (220000000000#220000000005)</span></p></blockquote><h3>Usages</h3><table class=\"grid\"><tr><td style=\"display: none\">-</td><td><b>Country</b></td><td><b>Jurisdiction</b></td><td><b>Language</b></td></tr><tr><td style=\"display: none\">*</td><td>Denmark <span style=\"background: LightGoldenRodYellow; margin: 4px; border: 1px solid khaki\"> (<a href=\"http://terminology.hl7.org/5.3.0/CodeSystem-ISO3166Part1.html\">ISO 3166-1 Codes for the representation of names of countries and their subdivisions — Part 1: Country code</a>#DK)</span></td><td>Denmark <span style=\"background: LightGoldenRodYellow; margin: 4px; border: 1px solid khaki\"> (<a href=\"http://terminology.hl7.org/5.3.0/CodeSystem-ISO3166Part1.html\">ISO 3166-1 Codes for the representation of names of countries and their subdivisions — Part 1: Country code</a>#DK)</span></td><td>English <span style=\"background: LightGoldenRodYellow; margin: 4px; border: 1px solid khaki\"> (<a href=\"http://terminology.hl7.org/5.3.0/CodeSystem-v3-ietf3066.html\">Tags for the Identification of Languages</a>#en)</span></td></tr></table></blockquote></div>"
      },
      "identifier" : [{
        "system" : "https://spor.ema.europa.eu/pmswi/#/",
        "value" : "EU/1/16/1157/002"
      }],
      "type" : {
        "coding" : [{
          "system" : "http://hl7.org/fhir/medicinal-product-type",
          "code" : "MedicinalProduct",
          "display" : "Medicinal Product"
        }]
      },
      "domain" : {
        "coding" : [{
          "system" : "http://hl7.org/fhir/medicinal-product-domain",
          "code" : "Human",
          "display" : "Human use"
        }]
      },
      "status" : {
        "coding" : [{
          "system" : "http://hl7.org/fhir/publication-status",
          "code" : "active",
          "display" : "active"
        }]
      },
      "indication" : "Suliqua is indicated for the treatment of adults with insufficiently controlled type 2 diabetes mellitus to improve glycaemic control as an adjunct to diet and exercise in addition to metformin with or without SGLT-2 inhibitors.",
      "legalStatusOfSupply" : {
        "coding" : [{
          "system" : "https://spor.ema.europa.eu/rmswi",
          "code" : "100000072084",
          "display" : "Medicinal product subject to medical prescription"
        }]
      },
      "classification" : [{
        "coding" : [{
          "system" : "http://www.whocc.no/atc",
          "code" : "A10AE54",
          "display" : "insulin glargine and lixisenatide"
        }]
      }],
      "name" : [{
        "productName" : "Suliqua 100 units/ml + 50 micrograms/ml solution for injection in a pre-filled pen",
        "type" : {
          "coding" : [{
            "system" : "https://spor.ema.europa.eu/lists/220000000000",
            "code" : "220000000001"
          }],
          "text" : "Full name"
        },
        "part" : [{
          "part" : "Suliqua",
          "type" : {
            "coding" : [{
              "system" : "https://spor.ema.europa.eu/lists/220000000000",
              "code" : "220000000002"
            }],
            "text" : "Invented name part"
          }
        },
        {
          "part" : "Insulin glargine, Lixisenatide",
          "type" : {
            "coding" : [{
              "system" : "https://spor.ema.europa.eu/lists/220000000000",
              "code" : "220000000003"
            }],
            "text" : "Scientific name part"
          }
        },
        {
          "part" : "100 units/ml + 50 ug/ml",
          "type" : {
            "coding" : [{
              "system" : "https://spor.ema.europa.eu/lists/220000000000",
              "code" : "220000000004"
            }],
            "text" : "Strength part"
          }
        },
        {
          "part" : "Solution for injection",
          "type" : {
            "coding" : [{
              "system" : "https://spor.ema.europa.eu/lists/220000000000",
              "code" : "220000000005"
            }],
            "text" : "Pharmaceutical dose form part"
          }
        }],
        "usage" : [{
          "country" : {
            "coding" : [{
              "system" : "urn:iso:std:iso:3166",
              "code" : "DK",
              "display" : "Denmark"
            }]
          },
          "jurisdiction" : {
            "coding" : [{
              "system" : "urn:iso:std:iso:3166",
              "code" : "DK",
              "display" : "Denmark"
            }]
          },
          "language" : {
            "coding" : [{
              "system" : "urn:ietf:bcp:47",
              "code" : "en",
              "display" : "English"
            }]
          }
        }]
      }]
    }
  },
  {
    "fullUrl" : "http://hl7.eu/fhir/ig/gravitate-health/ManufacturedItemDefinition/mid-66d97ddf0e95a23a3c0f4f2102139f34",
    "resource" : {
      "resourceType" : "ManufacturedItemDefinition",
      "id" : "mid-66d97ddf0e95a23a3c0f4f2102139f34",
      "meta" : {
        "profile" : ["http://hl7.org/fhir/uv/emedicinal-product-info/StructureDefinition/ManufacturedItemDefinition-uv-epi"]
      },
      "text" : {
        "status" : "generated",
        "div" : "<div xmlns=\"http://www.w3.org/1999/xhtml\"><p><b>Generated Narrative: ManufacturedItemDefinition</b><a name=\"mid-66d97ddf0e95a23a3c0f4f2102139f34\"> </a></p><div style=\"display: inline-block; background-color: #d9e0e7; padding: 6px; margin: 4px; border: 1px solid #8da1b4; border-radius: 5px; line-height: 60%\"><p style=\"margin-bottom: 0px\">Resource ManufacturedItemDefinition &quot;mid-66d97ddf0e95a23a3c0f4f2102139f34&quot; </p><p style=\"margin-bottom: 0px\">Profile: <a href=\"https://build.fhir.org/ig/HL7/emedicinal-product-info//StructureDefinition-ManufacturedItemDefinition-uv-epi.html\">ManufacturedItemDefinition (ePI)</a></p></div><p><b>identifier</b>: id:\u00a0EU/1/16/1157/003\u00a0(use:\u00a0OFFICIAL)</p><p><b>status</b>: active</p><p><b>manufacturedDoseForm</b>: Solution <span style=\"background: LightGoldenRodYellow; margin: 4px; border: 1px solid khaki\"> (#200000002007)</span></p><p><b>unitOfPresentation</b>: Pen <span style=\"background: LightGoldenRodYellow; margin: 4px; border: 1px solid khaki\"> (rmswi#200000002135)</span></p></div>"
      },
      "identifier" : [{
        "use" : "official",
        "system" : "https://spor.ema.europa.eu/pmswi",
        "value" : "EU/1/16/1157/003"
      }],
      "status" : "active",
      "manufacturedDoseForm" : {
        "coding" : [{
          "system" : "https://spor.ema.europa.eu/rmswi/",
          "code" : "200000002007",
          "display" : "Solution"
        }]
      },
      "unitOfPresentation" : {
        "coding" : [{
          "system" : "https://spor.ema.europa.eu/rmswi",
          "code" : "200000002135",
          "display" : "Pen"
        }]
      }
    }
  }]
}