{
  "resourceType" : "Bundle",
  "id" : "bundlepackageleaflet-31887cbcd4c018e35f958e5f8547dd66",
  "meta" : {
    "profile" : ["http://hl7.org/fhir/uv/emedicinal-product-info/StructureDefinition/Bundle-uv-epi"]
  },
  "language" : "en",
  "identifier" : {
    "system" : "https://www.gravitatehealth.eu/sid/doc",
    "value" : "xx"
  },
  "type" : "document",
  "timestamp" : "2023-06-27T10:09:22Z",
  "entry" : [{
    "fullUrl" : "http://hl7.eu/fhir/ig/gravitate-health/Composition/composition45f3604d61f93f5f026bea5d5824af10",
    "resource" : {
      "resourceType" : "Composition",
      "id" : "composition45f3604d61f93f5f026bea5d5824af10",
      "meta" : {
        "profile" : ["http://hl7.org/fhir/uv/emedicinal-product-info/StructureDefinition/Composition-uv-epi"]
      },
      "language" : "en",
      "text" : {
        "status" : "generated",
        "div" : "<div xmlns=\"http://www.w3.org/1999/xhtml\" xml:lang=\"en\" lang=\"en\"><p><b>Generated Narrative: Composition</b><a name=\"composition45f3604d61f93f5f026bea5d5824af10\"> </a></p><div style=\"display: inline-block; background-color: #d9e0e7; padding: 6px; margin: 4px; border: 1px solid #8da1b4; border-radius: 5px; line-height: 60%\"><p style=\"margin-bottom: 0px\">Resource Composition &quot;composition45f3604d61f93f5f026bea5d5824af10&quot;  (Language &quot;en&quot;) </p><p style=\"margin-bottom: 0px\">Profile: <a href=\"https://build.fhir.org/ig/HL7/emedicinal-product-info//StructureDefinition-Composition-uv-epi.html\">Composition (ePI)</a></p></div><p><b>identifier</b>: id:\u00a067ff4522ed913c691ffda86f38ef0f4f</p><p><b>status</b>: final</p><p><b>type</b>: Package Leaflet <span style=\"background: LightGoldenRodYellow; margin: 4px; border: 1px solid khaki\"> (#100000155538)</span></p><p><b>category</b>: Raw <span style=\"background: LightGoldenRodYellow; margin: 4px; border: 1px solid khaki\"> (<a href=\"CodeSystem-epicategory-cs.html\">Category of EPI</a>#R)</span></p><p><b>date</b>: 2023-07-31 13:28:17+0000</p><p><b>author</b>: <a href=\"#Organization_mah-3fdc76794516d7826890ab9f893e99c1\">See above (Organization/mah-3fdc76794516d7826890ab9f893e99c1)</a></p><p><b>title</b>: TEST PURPOSES ONLY - Humalog</p><h3>Attesters</h3><table class=\"grid\"><tr><td style=\"display: none\">-</td><td><b>Mode</b></td><td><b>Time</b></td></tr><tr><td style=\"display: none\">*</td><td>Official <span style=\"background: LightGoldenRodYellow; margin: 4px; border: 1px solid khaki\"> (<a href=\"http://hl7.org/fhir/R5/codesystem-composition-attestation-mode.html\">Composition Attestation Mode</a>#official)</span></td><td>2022-02-16 13:28:17+0000</td></tr></table></div>"
      },
      "identifier" : [{
        "system" : "https://spor.ema.europa.eu/rmswi/",
        "value" : "67ff4522ed913c691ffda86f38ef0f4f"
      }],
      "status" : "final",
      "type" : {
        "coding" : [{
          "system" : "https://spor.ema.europa.eu/rmswi/",
          "code" : "100000155538"
        }],
        "text" : "Package Leaflet"
      },
      "category" : [{
        "coding" : [{
          "system" : "http://hl7.eu/fhir/ig/gravitate-health/CodeSystem/epicategory-cs",
          "code" : "R",
          "display" : "Raw"
        }]
      }],
      "subject" : [{
        "reference" : "MedicinalProductDefinition/mpd33868162d255ced115cecbbf188aab4"
      }],
      "date" : "2023-07-31T13:28:17Z",
      "author" : [{
        "reference" : "Organization/mah-3fdc76794516d7826890ab9f893e99c1"
      }],
      "title" : "TEST PURPOSES ONLY - Humalog",
      "attester" : [{
        "mode" : {
          "coding" : [{
            "system" : "http://hl7.org/fhir/composition-attestation-mode",
            "code" : "official"
          }]
        },
        "time" : "2022-02-16T13:28:17Z"
      }],
      "section" : [{
        "title" : "B. Package Leaflet",
        "code" : {
          "coding" : [{
            "system" : "https://spor.ema.europa.eu/rmswi/",
            "code" : "100000155538"
          }],
          "text" : "B. PACKAGE LEAFLET"
        },
        "text" : {
          "status" : "additional",
          "div" : "<div xmlns=\"http://www.w3.org/1999/xhtml\">unavailable</div>"
        },
        "emptyReason" : {
          "coding" : [{
            "system" : "http://terminology.hl7.org/CodeSystem/list-empty-reason",
            "code" : "unavailable"
          }]
        },
        "section" : [{
          "title" : "Package leaflet: Information for the user",
          "code" : {
            "coding" : [{
              "system" : "https://spor.ema.europa.eu/rmswi/",
              "code" : "100000155538"
            }],
            "text" : "Package leaflet: Information for the user"
          },
          "text" : {
            "status" : "additional",
            "div" : "<div xmlns=\"http://www.w3.org/1999/xhtml\">PACKAGE LEAFLET: INFORMATION FOR THE USER Humalog Mix50 100 units/ml suspension for injection in cartridge insulin lispro Read all of this leaflet carefully before you start taking this medicine because it contains important information for you.<ul><li>Keep this leaflet. You may need to read it again.</li><li>If you have any further questions, ask your doctor or pharmacist.</li><li>This medicine has been prescribed for you only. Do not pass it on to others. It may harm them, even if their signs of illness are the same as yours.</li><li>If you get any side effects talk to your doctor or pharmacist. This includes any possible side effects not listed in this leaflet. See section 4.</li></ul></div>"
          }
        },
        {
          "title" : "What is in this leaflet",
          "code" : {
            "coding" : [{
              "system" : "https://spor.ema.europa.eu/rmswi/",
              "code" : "100000155538"
            }],
            "text" : "What is in this leaflet"
          },
          "text" : {
            "status" : "additional",
            "div" : "<div xmlns=\"http://www.w3.org/1999/xhtml\">What in this leaflet<ol><li>What Humalog Mix50 is and what it is used for</li><li>What you need to know before you take Humalog Mix50</li><li>How to take Humalog Mix50</li><li>Possible side effects</li><li>How to store Humalog Mix50</li><li>Contents of the pack and other information</li></ol></div>"
          }
        },
        {
          "title" : "1. What Humalog is and what it is used for",
          "code" : {
            "coding" : [{
              "system" : "https://spor.ema.europa.eu/rmswi/",
              "code" : "100000155538"
            }],
            "text" : "1. What Humalog is and what it is used for"
          },
          "text" : {
            "status" : "additional",
            "div" : "<div xmlns=\"http://www.w3.org/1999/xhtml\"><p>Humalog is used to treat diabetes. Humalog works more quickly than normal human insulin because the insulin molecule has been changed slightly.</p><p>You get diabetes if your pancreas does not make enough insulin to control the level of glucose in your blood. Humalog is a substitute for your own insulin and is used to control glucose in the long term. It works very quickly and lasts a shorter time than soluble insulin (2 to 5 hours). You should normally use Humalog within 15 minutes of a meal.</p><p>Your doctor may tell you to use Humalog as well as a longer-acting insulin. Each kind of insulin comes with another patient information leaflet to tell you about it. Do not change your insulin unless your doctor tells you to. Be very careful if you do change insulin.</p><p>Humalog is suitable for use in adults and children.</p></div>"
          }
        },
        {
          "title" : "2. What you need to know before you take Humalog",
          "code" : {
            "coding" : [{
              "system" : "https://spor.ema.europa.eu/rmswi/",
              "code" : "100000155538"
            }],
            "text" : "2. What you need to know before you take Humalog"
          },
          "text" : {
            "status" : "additional",
            "div" : "<div xmlns=\"http://www.w3.org/1999/xhtml\"><p><strong>Do NOT use Humalog Mix50</strong></p><ul><li>if you think hypoglycaemia (low blood sugar) is starting. Further in this leaflet it tells you how to deal with mild hypoglycaemia (see Section 3: If you take more Humalog Mix50 than you need).</li><li>if you are allergic to insulin lispro or any of the other ingredients of this medicine (listed in section 6).</li></ul><p><strong>Warnings and precautions</strong></p><ul><li>Always check the pack and the cartridge label for the name and type of the insulin when you get it from your pharmacy. Make sure you get the Humalog Mix50 that your doctor has told you to use.</li><li>If your blood sugar levels are well controlled by your current insulin therapy, you may not feel the warning symptoms when your blood sugar is falling too low. Warning signs are listed later in this leaflet. You must think carefully about when to have your meals, how often to exercise and how much to do. You must also keep a close watch on your blood sugar levels by testing your blood glucose often.</li><li>A few people who have had hypoglycaemia after switching from animal insulin to human insulin have reported that the early warning symptoms were less obvious or different. If you often have hypoglycaemia or have difficulty recognising them, please discuss this with your doctor.</li><li>If you answer YES to any of the following questions, tell your doctor, pharmacist or diabetes nurse<ul><li>Have you recently become ill?</li><li>Do you have trouble with your kidneys or liver?</li><li>Are you exercising more than usual?</li></ul></li><li>The amount of insulin you need may also change if you drink alcohol.</li><li>You should also tell your doctor, pharmacist or diabetes nurse if you are planning to go abroad. The time difference between countries may mean that you have to have your injections and meals at different times from when you are at home.</li><li>Some patients with long-standing type 2 diabetes mellitus and heart disease or previous stroke who were treated with pioglitazone and insulin experienced the development of heart failure. Inform your doctor as soon as possible, if you experience signs of heart failure such as unusual shortness of breath or rapid increase in weight or localised swelling (oedema).</li></ul><p><strong>Skin changes at the injection site</strong></p><p>The injection site should be rotated to prevent skin changes such as lumps under the skin. The insulin may not work very well if you inject into a lumpy area (See How to use Humalog Mix50). Contact your doctor if you are currently injecting into a lumpy area before you start injecting a different area. Your doctor may tell you to check your blood sugar more closely, and to adjust your insulin or your other antidiabetic medications dose.</p><p><strong>Other medicines and Humalog Mix50</strong></p><p>Your insulin needs may change if you are taking</p><ul><li>the contraceptive pill,</li><li>steroids,</li><li>thyroid hormone replacement therapy,</li><li>oral hypoglycaemics,</li><li>acetyl salicylic acid,</li><li>sulpha antibiotics,</li><li>octreotide,</li><li>“beta2 stimulants” (for example ritodrine, salbutamol or terbutaline),</li><li>beta-blockers, or</li><li>some antidepressants (monoamine oxidase inhibitors or selective serotonin reuptake inhibitors),</li><li>danazol,</li><li>some angiotensin converting enzyme (ACE) inhibitors (for example captopril, enalapril), and</li><li>angiotensin II receptor blockers. Please tell your doctor, if you are taking, have recently taken or might take any other medicines, including medicines obtained without a prescription (see section “Warnings and precautions”).</li></ul><p><strong>Pregnancy and breast-feeding</strong></p><p>Are you pregnant or thinking about becoming pregnant, or are you breast-feeding? The amount of insulin you need usually falls during the first three months of pregnancy and increases for the remaining six months. If you are breast-feeding, you may need to alter your insulin intake or diet. Ask your doctor for advice.</p><p><strong>Driving and using machines</strong></p><p>Your ability to concentrate and react may be reduced if you have hypoglycaemia. Please keep this possible problem in mind in all situations where you might put yourself and others at risk (e.g. driving a car or operating machinery). You should contact your doctor about the advisability of driving if you have:</p><ul><li>frequent episodes of hypoglycaemia</li><li>reduced or absent warning signs of hypoglycaemia Humalog Mix50 contains sodium This medicine contains less than 1 mmol sodium (23 mg) per dose, that is to say essentially ‘sodium-free’.</li></ul></div>"
          }
        },
        {
          "title" : "3. How to take Humalog",
          "code" : {
            "coding" : [{
              "system" : "https://spor.ema.europa.eu/rmswi/",
              "code" : "100000155538"
            }],
            "text" : "3. How to take Humalog"
          },
          "text" : {
            "status" : "additional",
            "div" : "<div xmlns=\"http://www.w3.org/1999/xhtml\"><b>3. How to use Humalog Mix50</b><p><strong>Dose</strong></p><ul><li>You should normally inject Humalog Mix50 within 15 minutes of a meal. If you need to, you can inject soon after a meal. But your doctor will have told you exactly how much to use, when to use it, and how often. These instructions are only for you. Follow them exactly and visit your diabetes clinic regularly.</li><li>If you change the type of insulin you use (for example from a human or animal insulin to a Humalog product), you may have to take more or less than before. This might just be for the first injection or it may be a gradual change over several weeks or months.</li><li>Inject Humalog Mix50 under the skin. You should not administer it using a different administration route. Under no circumstances should Humalog Mix50 be given intravenously.</li></ul><p><strong>Preparing Humalog Mix50</strong></p><ul><li>Cartridges containing Humalog Mix50 should be rotated in the palms of the hands ten times and inverted 180° ten times immediately before use to resuspend insulin until it appears uniformly cloudy or milky. If not, repeat the above procedure until contents are mixed. Cartridges contain a small glass bead to assist mixing. Do not shake vigorously as this may cause frothing which may interfere with the correct measurement of the dose. The cartridges should be examined frequently and should not be used if clumps of material are present or if solid white particles stick to the bottom or wall of the cartridge, giving it a frosted appearance. Check each time you inject yourself.</li></ul><p><strong>Getting the pen ready to use</strong></p><ul><li>First wash your hands. Disinfect the rubber membrane of the cartridge.</li><li>You must only use Humalog Mix50 cartridges in Lilly insulin pens. Please make sure that Humalog or Lilly cartridges are mentioned in the leaflet accompanying your pen. The 3 ml cartridge only fits the 3 ml pen.</li><li>Follow the instructions that come with the pen. Put the cartridge into the pen.</li><li>You will set the dose to 1 or 2 units. Then hold the pen with the needle pointing up and tap the side of the pen so that any bubbles float to the top. With the pen still pointing up, press the injection mechanism. Do this until a drop of Humalog Mix50 comes out of the needle. There may still be some small air bubbles left in the pen. These are harmless, but if the air bubble is too big, it may make the dose of your injection less accurate. Injecting Humalog Mix50</li><li>Before you make an injection, clean your skin as you have been instructed. Inject under the skin, as you were taught. Do not inject directly into a vein. After your injection, leave the needle in the skin for five seconds to make sure you have taken the whole dose. Do not rub the area you have just injected. Make sure you inject at least half an inch (1 cm) from the last injection and that you ‘rotate’ the places you inject, as you have been taught.</li></ul><p><strong>After injecting</strong></p><ul><li>As soon as you have done the injection, take the needle off the pen using the outer needle cap. This will keep the Humalog Mix50 sterile and prevent leaking. It will also stop air going back into the pen and the needle clogging up. Do not share your needles. Do not share your pen. Replace the cap on your pen. Leave the cartridge in the pen.</li></ul><p><strong>Further injections</strong></p><ul><li>Before every injection, dial 1 or 2 units and press the injection mechanism with the pen pointing up until a drop of Humalog Mix50 comes out of the needle. You can see how much Humalog is left by looking at the gauge on the side of the cartridge. The distance between each mark on the gauge is about 20 units. If there is not enough for your dose, change the cartridge.</li></ul><p><strong>Do not mix any other insulin in a Humalog Mix50 cartridge. Once the cartridge is empty, do not use it again.</strong></p><p><strong>If you use more Humalog Mix50 than you should</strong> If you use more Humalog Mix50 than you need or are unsure how much you have injected, a low blood sugar may occur. Check your blood sugar.</p><p>If your blood sugar is low (<strong>mild hypoglycaemia</strong>), eat glucose tablets, sugar or drink a sugary drink. Then eat fruit, biscuits, or a sandwich, as your doctor has advised you and have some rest. This will often get you over mild hypoglycaemia or a minor insulin overdose. If you get worse and your breathing is shallow and your skin gets pale, tell your doctor at once. A glucagon injection can treat quite severe hypoglycaemia. Eat glucose or sugar after the glucagon injection. If you do not respond to glucagon, you will have to go to hospital. Ask your doctor to tell you about glucagon.</p><p><strong>If you forget to use Humalog Mix50</strong></p><p>If you take less Humalog Mix50 than you need or are unsure how much you have injected, a high blood sugar may occur. Check your blood sugar</p><p>If hypoglycaemia (low blood sugar) or hyperglycaemia (high blood sugar) is not treated they can be very serious and cause headaches, nausea, vomiting, dehydration, unconsciousness, coma or even death (see A and B in section 4 “Possible Side Effects”).</p><p><strong>Three simple steps</strong> to avoid hypoglycaemia or hyperglycaemia are:</p><ul><li>Always keep a spare pen and cartridges, in case you lose your pen or cartridges or they get damaged.</li><li>Always carry something to show you are diabetic.</li><li>Always carry sugar with you.</li></ul><p><strong>If you stop using Humalog Mix50.</strong></p><p>If you take less Humalog Mix50 than you need, a high blood sugar may occur. Do not change your insulin unless your doctor tells you to.</p><p>If you have any further questions on the use of this product, ask your doctor or pharmacist</p></div>"
          }
        },
        {
          "title" : "4. Possible side effects",
          "code" : {
            "coding" : [{
              "system" : "https://spor.ema.europa.eu/rmswi/",
              "code" : "100000155538"
            }],
            "text" : "4. Possible side effects"
          },
          "text" : {
            "status" : "additional",
            "div" : "<div xmlns=\"http://www.w3.org/1999/xhtml\"><p>Like all medicines, this medicine can cause side effects, although not everybody gets them. Systemic allergy is rare (≥ 1/10,000 to &lt;1/1,000). The symptoms are as follows:</p><ul><li>rash over the whole body</li><li>blood pressure dropping</li><li>difficulty in breathing</li><li>heart beating fast</li><li>wheezing</li><li>sweating</li></ul><p>If you think you are having this sort of insulin allergy with Humalog, tell your doctor at once.</p><p>Local allergy is common (≥ 1/100 to &lt;1/10). Some people get redness, swelling or itching around the area of the insulin injection. This usually clears up in anything from a few days to a few weeks. If this happens to you, tell your doctor.</p><p>Lipodystrophy is uncommon (≥ 1/1,000 to &lt;1/100). If you inject insulin too often at the same place, the fatty tissue may either shrink (lipoatrophy) or thicken (lipohypertrophy). Lumps under the skin may also be caused by build-up of a protein called amyloid (cutaneous amyloidosis). The insulin may not work very well if you inject into a lumpy area. Change the injection site with each injection to help prevent these skin changes.</p><p>Oedema (e.g. swelling in arms, ankles; fluid retention) has been reported, particularly at the start of insulin therapy or during a change in therapy to improve control of your blood glucose.</p><p><strong>Reporting of side effects</strong></p><p>If you get any side effects, talk to your doctor or pharmacist. This includes any possible side effects not listed in this leaflet. You can also report side effects directly via the national reporting system listed in Appendix V. By reporting side effects you can help provide more information on the safety of this medicine.</p><p><strong>Common problems of diabetes</strong></p><p><strong>A. Hypoglycaemia</strong></p><p>Hypoglycaemia (low blood sugar) means there is not enough sugar in the blood. This can be caused if:</p><ul><li>you take too much Humalog or other insulin;</li><li>you miss or delay meals or change your diet;</li><li>you exercise or work too hard just before or after a meal;</li><li>you have an infection or illness (especially diarrhoea or vomiting);</li><li>there is a change in your need for insulin; or</li><li>you have trouble with your kidneys or liver which gets worse. Alcohol and some medicines can affect your blood sugar levels. The first symptoms of low blood sugar usually come on quickly and include the following:</li><li>tiredness</li><li>rapid heartbeat</li><li>nervousness or shakiness</li><li>feeling sick</li><li>headache</li><li>cold sweat. While you are not confident about recognising your warning symptoms, avoid situations, e.g. driving a car, in which you or others would be put at risk by hypoglycaemia.</li></ul><p><strong>B. Hyperglycaemia and diabetic ketoacidosis</strong></p><p>Hyperglycaemia (too much sugar in the blood) means that your body does not have enough insulin. Hyperglycaemia can be brought about by:</p><ul><li>not taking your Humalog or other insulin;</li><li>taking less insulin than your doctor tells you to;</li><li>eating a lot more than your diet allows; or</li><li>fever, infection or emotional stress.</li></ul><p>Hyperglycaemia can lead to diabetic ketoacidosis. The first symptoms come on slowly over many hours or days. The symptoms include the following:</p><ul><li>feeling sleepy</li><li>no appetite</li><li>flushed face</li><li>fruity smell on the breath</li><li>thirst</li><li>feeling or being sick Severe symptoms are heavy breathing and a rapid pulse. <strong>Get medical help immediately.</strong></li></ul><p><strong>C. Illness</strong></p><p>If you are ill, especially if you feel sick or are sick, the amount of insulin you need may change. Even when you are not eating normally, you still need insulin. Test your urine or blood, follow your ‘sick rules’, and tell your doctor.</p></div>"
          }
        },
        {
          "title" : "5. How to store Humalog",
          "code" : {
            "coding" : [{
              "system" : "https://spor.ema.europa.eu/rmswi/",
              "code" : "100000155538"
            }],
            "text" : "5. How to store Humalog"
          },
          "text" : {
            "status" : "additional",
            "div" : "<div xmlns=\"http://www.w3.org/1999/xhtml\"><p>Before the first use store your Humalog Mix50 in a refrigerator (2°C – 8°C). Do not freeze. Keep your cartridge in use at room temperature (below 30°C) and discard after 28 days. Do not put it near heat or in the sun. Do not keep your pen or the cartridges you are using in the fridge. The pen with the inserted cartridge should not be stored with the needle attached. Keep out of the sight and reach of children. Do not use this medicine after the expiry date which is stated on the label and the carton. The expiry date refers to the last day of that month. Do not use this medicine if you notice clumps of material are present or if solid white particles stick to the bottom or wall of the cartridge, giving it a frosted appearance. Check each time you inject yourself. Medicines should not be disposed of via wastewater or household waste. Ask your pharmacist how to dispose of medicines no longer required. These measures will help to protect the environment.</p></div>"
          }
        },
        {
          "title" : "6. Contents of the pack and other information",
          "code" : {
            "coding" : [{
              "system" : "https://spor.ema.europa.eu/rmswi/",
              "code" : "100000155538"
            }],
            "text" : "6. Contents of the pack and other information"
          },
          "text" : {
            "status" : "additional",
            "div" : "<div xmlns=\"http://www.w3.org/1999/xhtml\"><b>What Humalog Mix50 100 units/ml suspension for injection in cartridge contains</b><p>The active substance is insulin lispro. Insulin lispro is made in the laboratory by a ‘recombinant DNA technology’ process. It is a changed form of human insulin and so is different from other human and animal insulins. Insulin lispro is closely related to human insulin which is a natural hormone made by the pancreas. The other ingredients are protamine sulphate, m-cresol, phenol, glycerol, dibasic sodium phosphate 7H2O, zinc oxide and water for injection. Sodium hydroxide or hydrochloric acid may have been used to adjust the acidity.</p></div>"
          }
        }]
      }]
    }
  },
  {
    "fullUrl" : "http://hl7.eu/fhir/ig/gravitate-health/Ingredient/ingredient-for-humalog-glycerol",
    "resource" : {
      "resourceType" : "Ingredient",
      "id" : "ingredient-for-humalog-glycerol",
      "meta" : {
        "profile" : ["http://hl7.org/fhir/uv/emedicinal-product-info/StructureDefinition/Ingredient-uv-epi"]
      },
      "text" : {
        "status" : "generated",
        "div" : "<div xmlns=\"http://www.w3.org/1999/xhtml\"><p><b>Generated Narrative: Ingredient</b><a name=\"ingredient-for-humalog-glycerol\"> </a></p><div style=\"display: inline-block; background-color: #d9e0e7; padding: 6px; margin: 4px; border: 1px solid #8da1b4; border-radius: 5px; line-height: 60%\"><p style=\"margin-bottom: 0px\">Resource Ingredient &quot;ingredient-for-humalog-glycerol&quot; </p><p style=\"margin-bottom: 0px\">Profile: <a href=\"https://build.fhir.org/ig/HL7/emedicinal-product-info//StructureDefinition-Ingredient-uv-epi.html\">Ingredient (ePI)</a></p></div><p><b>identifier</b>: id:\u00a0PDC6A3C0OX\u00a0(use:\u00a0OFFICIAL)</p><p><b>status</b>: active</p><p><b>for</b>: </p><ul><li><a href=\"#ManufacturedItemDefinition_mid-a38f06714db0c27b2ba704652e3f08c5\">See above (ManufacturedItemDefinition/mid-a38f06714db0c27b2ba704652e3f08c5)</a></li><li><a href=\"#MedicinalProductDefinition_mpd33868162d255ced115cecbbf188aab4\">See above (MedicinalProductDefinition/mpd33868162d255ced115cecbbf188aab4)</a></li><li><a href=\"#AdministrableProductDefinition_ap-a38f06714db0c27b2ba704652e3f08c5\">See above (AdministrableProductDefinition/ap-a38f06714db0c27b2ba704652e3f08c5)</a></li></ul><p><b>role</b>: Excipient <span style=\"background: LightGoldenRodYellow; margin: 4px; border: 1px solid khaki\"> (rmswi#100000072082)</span></p><h3>Manufacturers</h3><table class=\"grid\"><tr><td style=\"display: none\">-</td><td><b>Manufacturer</b></td></tr><tr><td style=\"display: none\">*</td><td><a href=\"#Organization_mapi-6f4987de7be1bbfa4ee92c07de7e94d4\">See above (Organization/mapi-6f4987de7be1bbfa4ee92c07de7e94d4)</a></td></tr></table><blockquote><p><b>substance</b></p><h3>Codes</h3><table class=\"grid\"><tr><td style=\"display: none\">-</td><td><b>Concept</b></td></tr><tr><td style=\"display: none\">*</td><td>Glycerol <span style=\"background: LightGoldenRodYellow; margin: 4px; border: 1px solid khaki\"> (beta#PDC6A3C0OX)</span></td></tr></table></blockquote></div>"
      },
      "identifier" : {
        "use" : "official",
        "system" : "https://gsrs.ncats.nih.gov/ginas/app/beta",
        "value" : "PDC6A3C0OX"
      },
      "status" : "active",
      "for" : [{
        "reference" : "ManufacturedItemDefinition/mid-a38f06714db0c27b2ba704652e3f08c5"
      },
      {
        "reference" : "MedicinalProductDefinition/mpd33868162d255ced115cecbbf188aab4"
      },
      {
        "reference" : "AdministrableProductDefinition/ap-a38f06714db0c27b2ba704652e3f08c5"
      }],
      "role" : {
        "coding" : [{
          "system" : "https://spor.ema.europa.eu/rmswi",
          "code" : "100000072082",
          "display" : "Excipient"
        }]
      },
      "manufacturer" : [{
        "manufacturer" : {
          "reference" : "Organization/mapi-6f4987de7be1bbfa4ee92c07de7e94d4"
        }
      }],
      "substance" : {
        "code" : {
          "concept" : {
            "coding" : [{
              "system" : "https://gsrs.ncats.nih.gov/ginas/app/beta",
              "code" : "PDC6A3C0OX",
              "display" : "Glycerol"
            }]
          }
        }
      }
    }
  },
  {
    "fullUrl" : "http://hl7.eu/fhir/ig/gravitate-health/Ingredient/ingredient-for-humalog-hydrochloricacid",
    "resource" : {
      "resourceType" : "Ingredient",
      "id" : "ingredient-for-humalog-hydrochloricacid",
      "meta" : {
        "profile" : ["http://hl7.org/fhir/uv/emedicinal-product-info/StructureDefinition/Ingredient-uv-epi"]
      },
      "text" : {
        "status" : "generated",
        "div" : "<div xmlns=\"http://www.w3.org/1999/xhtml\"><p><b>Generated Narrative: Ingredient</b><a name=\"ingredient-for-humalog-hydrochloricacid\"> </a></p><div style=\"display: inline-block; background-color: #d9e0e7; padding: 6px; margin: 4px; border: 1px solid #8da1b4; border-radius: 5px; line-height: 60%\"><p style=\"margin-bottom: 0px\">Resource Ingredient &quot;ingredient-for-humalog-hydrochloricacid&quot; </p><p style=\"margin-bottom: 0px\">Profile: <a href=\"https://build.fhir.org/ig/HL7/emedicinal-product-info//StructureDefinition-Ingredient-uv-epi.html\">Ingredient (ePI)</a></p></div><p><b>identifier</b>: id:\u00a0QTT17582CB\u00a0(use:\u00a0OFFICIAL)</p><p><b>status</b>: active</p><p><b>for</b>: </p><ul><li><a href=\"#ManufacturedItemDefinition_mid-a38f06714db0c27b2ba704652e3f08c5\">See above (ManufacturedItemDefinition/mid-a38f06714db0c27b2ba704652e3f08c5)</a></li><li><a href=\"#MedicinalProductDefinition_mpd33868162d255ced115cecbbf188aab4\">See above (MedicinalProductDefinition/mpd33868162d255ced115cecbbf188aab4)</a></li><li><a href=\"#AdministrableProductDefinition_ap-a38f06714db0c27b2ba704652e3f08c5\">See above (AdministrableProductDefinition/ap-a38f06714db0c27b2ba704652e3f08c5)</a></li></ul><p><b>role</b>: Excipient <span style=\"background: LightGoldenRodYellow; margin: 4px; border: 1px solid khaki\"> (rmswi#100000072082)</span></p><h3>Manufacturers</h3><table class=\"grid\"><tr><td style=\"display: none\">-</td><td><b>Manufacturer</b></td></tr><tr><td style=\"display: none\">*</td><td><a href=\"#Organization_mapi-6f4987de7be1bbfa4ee92c07de7e94d4\">See above (Organization/mapi-6f4987de7be1bbfa4ee92c07de7e94d4)</a></td></tr></table><blockquote><p><b>substance</b></p><h3>Codes</h3><table class=\"grid\"><tr><td style=\"display: none\">-</td><td><b>Concept</b></td></tr><tr><td style=\"display: none\">*</td><td>Hydrochloric acid <span style=\"background: LightGoldenRodYellow; margin: 4px; border: 1px solid khaki\"> (beta#QTT17582CB)</span></td></tr></table></blockquote></div>"
      },
      "identifier" : {
        "use" : "official",
        "system" : "https://gsrs.ncats.nih.gov/ginas/app/beta",
        "value" : "QTT17582CB"
      },
      "status" : "active",
      "for" : [{
        "reference" : "ManufacturedItemDefinition/mid-a38f06714db0c27b2ba704652e3f08c5"
      },
      {
        "reference" : "MedicinalProductDefinition/mpd33868162d255ced115cecbbf188aab4"
      },
      {
        "reference" : "AdministrableProductDefinition/ap-a38f06714db0c27b2ba704652e3f08c5"
      }],
      "role" : {
        "coding" : [{
          "system" : "https://spor.ema.europa.eu/rmswi",
          "code" : "100000072082",
          "display" : "Excipient"
        }]
      },
      "manufacturer" : [{
        "manufacturer" : {
          "reference" : "Organization/mapi-6f4987de7be1bbfa4ee92c07de7e94d4"
        }
      }],
      "substance" : {
        "code" : {
          "concept" : {
            "coding" : [{
              "system" : "https://gsrs.ncats.nih.gov/ginas/app/beta",
              "code" : "QTT17582CB",
              "display" : "Hydrochloric acid"
            }]
          }
        }
      }
    }
  },
  {
    "fullUrl" : "http://hl7.eu/fhir/ig/gravitate-health/Ingredient/ingredient-for-humalog-sodiumhydroxide",
    "resource" : {
      "resourceType" : "Ingredient",
      "id" : "ingredient-for-humalog-sodiumhydroxide",
      "meta" : {
        "profile" : ["http://hl7.org/fhir/uv/emedicinal-product-info/StructureDefinition/Ingredient-uv-epi"]
      },
      "text" : {
        "status" : "generated",
        "div" : "<div xmlns=\"http://www.w3.org/1999/xhtml\"><p><b>Generated Narrative: Ingredient</b><a name=\"ingredient-for-humalog-sodiumhydroxide\"> </a></p><div style=\"display: inline-block; background-color: #d9e0e7; padding: 6px; margin: 4px; border: 1px solid #8da1b4; border-radius: 5px; line-height: 60%\"><p style=\"margin-bottom: 0px\">Resource Ingredient &quot;ingredient-for-humalog-sodiumhydroxide&quot; </p><p style=\"margin-bottom: 0px\">Profile: <a href=\"https://build.fhir.org/ig/HL7/emedicinal-product-info//StructureDefinition-Ingredient-uv-epi.html\">Ingredient (ePI)</a></p></div><p><b>identifier</b>: id:\u00a055X04QC32I\u00a0(use:\u00a0OFFICIAL)</p><p><b>status</b>: active</p><p><b>for</b>: </p><ul><li><a href=\"#ManufacturedItemDefinition_mid-a38f06714db0c27b2ba704652e3f08c5\">See above (ManufacturedItemDefinition/mid-a38f06714db0c27b2ba704652e3f08c5)</a></li><li><a href=\"#MedicinalProductDefinition_mpd33868162d255ced115cecbbf188aab4\">See above (MedicinalProductDefinition/mpd33868162d255ced115cecbbf188aab4)</a></li><li><a href=\"#AdministrableProductDefinition_ap-a38f06714db0c27b2ba704652e3f08c5\">See above (AdministrableProductDefinition/ap-a38f06714db0c27b2ba704652e3f08c5)</a></li></ul><p><b>role</b>: Excipient <span style=\"background: LightGoldenRodYellow; margin: 4px; border: 1px solid khaki\"> (rmswi#100000072082)</span></p><h3>Manufacturers</h3><table class=\"grid\"><tr><td style=\"display: none\">-</td><td><b>Manufacturer</b></td></tr><tr><td style=\"display: none\">*</td><td><a href=\"#Organization_mapi-6f4987de7be1bbfa4ee92c07de7e94d4\">See above (Organization/mapi-6f4987de7be1bbfa4ee92c07de7e94d4)</a></td></tr></table><blockquote><p><b>substance</b></p><h3>Codes</h3><table class=\"grid\"><tr><td style=\"display: none\">-</td><td><b>Concept</b></td></tr><tr><td style=\"display: none\">*</td><td>Sodium Hydroxide <span style=\"background: LightGoldenRodYellow; margin: 4px; border: 1px solid khaki\"> (beta#55X04QC32I)</span></td></tr></table></blockquote></div>"
      },
      "identifier" : {
        "use" : "official",
        "system" : "https://gsrs.ncats.nih.gov/ginas/app/beta",
        "value" : "55X04QC32I"
      },
      "status" : "active",
      "for" : [{
        "reference" : "ManufacturedItemDefinition/mid-a38f06714db0c27b2ba704652e3f08c5"
      },
      {
        "reference" : "MedicinalProductDefinition/mpd33868162d255ced115cecbbf188aab4"
      },
      {
        "reference" : "AdministrableProductDefinition/ap-a38f06714db0c27b2ba704652e3f08c5"
      }],
      "role" : {
        "coding" : [{
          "system" : "https://spor.ema.europa.eu/rmswi",
          "code" : "100000072082",
          "display" : "Excipient"
        }]
      },
      "manufacturer" : [{
        "manufacturer" : {
          "reference" : "Organization/mapi-6f4987de7be1bbfa4ee92c07de7e94d4"
        }
      }],
      "substance" : {
        "code" : {
          "concept" : {
            "coding" : [{
              "system" : "https://gsrs.ncats.nih.gov/ginas/app/beta",
              "code" : "55X04QC32I",
              "display" : "Sodium Hydroxide"
            }]
          }
        }
      }
    }
  },
  {
    "fullUrl" : "http://hl7.eu/fhir/ig/gravitate-health/Ingredient/ingredient-for-humalog-sterilewaterforinjection",
    "resource" : {
      "resourceType" : "Ingredient",
      "id" : "ingredient-for-humalog-sterilewaterforinjection",
      "meta" : {
        "profile" : ["http://hl7.org/fhir/uv/emedicinal-product-info/StructureDefinition/Ingredient-uv-epi"]
      },
      "text" : {
        "status" : "generated",
        "div" : "<div xmlns=\"http://www.w3.org/1999/xhtml\"><p><b>Generated Narrative: Ingredient</b><a name=\"ingredient-for-humalog-sterilewaterforinjection\"> </a></p><div style=\"display: inline-block; background-color: #d9e0e7; padding: 6px; margin: 4px; border: 1px solid #8da1b4; border-radius: 5px; line-height: 60%\"><p style=\"margin-bottom: 0px\">Resource Ingredient &quot;ingredient-for-humalog-sterilewaterforinjection&quot; </p><p style=\"margin-bottom: 0px\">Profile: <a href=\"https://build.fhir.org/ig/HL7/emedicinal-product-info//StructureDefinition-Ingredient-uv-epi.html\">Ingredient (ePI)</a></p></div><p><b>identifier</b>: id:\u00a0059QF0KO0R\u00a0(use:\u00a0OFFICIAL)</p><p><b>status</b>: active</p><p><b>for</b>: </p><ul><li><a href=\"#ManufacturedItemDefinition_mid-a38f06714db0c27b2ba704652e3f08c5\">See above (ManufacturedItemDefinition/mid-a38f06714db0c27b2ba704652e3f08c5)</a></li><li><a href=\"#MedicinalProductDefinition_mpd33868162d255ced115cecbbf188aab4\">See above (MedicinalProductDefinition/mpd33868162d255ced115cecbbf188aab4)</a></li><li><a href=\"#AdministrableProductDefinition_ap-a38f06714db0c27b2ba704652e3f08c5\">See above (AdministrableProductDefinition/ap-a38f06714db0c27b2ba704652e3f08c5)</a></li></ul><p><b>role</b>: Excipient <span style=\"background: LightGoldenRodYellow; margin: 4px; border: 1px solid khaki\"> (rmswi#100000072082)</span></p><h3>Manufacturers</h3><table class=\"grid\"><tr><td style=\"display: none\">-</td><td><b>Manufacturer</b></td></tr><tr><td style=\"display: none\">*</td><td><a href=\"#Organization_mapi-6f4987de7be1bbfa4ee92c07de7e94d4\">See above (Organization/mapi-6f4987de7be1bbfa4ee92c07de7e94d4)</a></td></tr></table><blockquote><p><b>substance</b></p><h3>Codes</h3><table class=\"grid\"><tr><td style=\"display: none\">-</td><td><b>Concept</b></td></tr><tr><td style=\"display: none\">*</td><td>STERILE WATER FOR INJECTION <span style=\"background: LightGoldenRodYellow; margin: 4px; border: 1px solid khaki\"> (beta#059QF0KO0R)</span></td></tr></table></blockquote></div>"
      },
      "identifier" : {
        "use" : "official",
        "system" : "https://gsrs.ncats.nih.gov/ginas/app/beta",
        "value" : "059QF0KO0R"
      },
      "status" : "active",
      "for" : [{
        "reference" : "ManufacturedItemDefinition/mid-a38f06714db0c27b2ba704652e3f08c5"
      },
      {
        "reference" : "MedicinalProductDefinition/mpd33868162d255ced115cecbbf188aab4"
      },
      {
        "reference" : "AdministrableProductDefinition/ap-a38f06714db0c27b2ba704652e3f08c5"
      }],
      "role" : {
        "coding" : [{
          "system" : "https://spor.ema.europa.eu/rmswi",
          "code" : "100000072082",
          "display" : "Excipient"
        }]
      },
      "manufacturer" : [{
        "manufacturer" : {
          "reference" : "Organization/mapi-6f4987de7be1bbfa4ee92c07de7e94d4"
        }
      }],
      "substance" : {
        "code" : {
          "concept" : {
            "coding" : [{
              "system" : "https://gsrs.ncats.nih.gov/ginas/app/beta",
              "code" : "059QF0KO0R",
              "display" : "STERILE WATER FOR INJECTION"
            }]
          }
        }
      }
    }
  },
  {
    "fullUrl" : "http://hl7.eu/fhir/ig/gravitate-health/Ingredient/ingredient-for-humalog-insulinlispro",
    "resource" : {
      "resourceType" : "Ingredient",
      "id" : "ingredient-for-humalog-insulinlispro",
      "meta" : {
        "profile" : ["http://hl7.org/fhir/uv/emedicinal-product-info/StructureDefinition/Ingredient-uv-epi"]
      },
      "text" : {
        "status" : "generated",
        "div" : "<div xmlns=\"http://www.w3.org/1999/xhtml\"><p><b>Generated Narrative: Ingredient</b><a name=\"ingredient-for-humalog-insulinlispro\"> </a></p><div style=\"display: inline-block; background-color: #d9e0e7; padding: 6px; margin: 4px; border: 1px solid #8da1b4; border-radius: 5px; line-height: 60%\"><p style=\"margin-bottom: 0px\">Resource Ingredient &quot;ingredient-for-humalog-insulinlispro&quot; </p><p style=\"margin-bottom: 0px\">Profile: <a href=\"https://build.fhir.org/ig/HL7/emedicinal-product-info//StructureDefinition-Ingredient-uv-epi.html\">Ingredient (ePI)</a></p></div><p><b>identifier</b>: id:\u00a0GFX7QIS1II\u00a0(use:\u00a0OFFICIAL)</p><p><b>status</b>: active</p><p><b>for</b>: </p><ul><li><a href=\"#ManufacturedItemDefinition_mid-a38f06714db0c27b2ba704652e3f08c5\">See above (ManufacturedItemDefinition/mid-a38f06714db0c27b2ba704652e3f08c5)</a></li><li><a href=\"#MedicinalProductDefinition_mpd33868162d255ced115cecbbf188aab4\">See above (MedicinalProductDefinition/mpd33868162d255ced115cecbbf188aab4)</a></li><li><a href=\"#AdministrableProductDefinition_ap-a38f06714db0c27b2ba704652e3f08c5\">See above (AdministrableProductDefinition/ap-a38f06714db0c27b2ba704652e3f08c5)</a></li></ul><p><b>role</b>: active <span style=\"background: LightGoldenRodYellow; margin: 4px; border: 1px solid khaki\"> (rmswi#72072)</span></p><h3>Manufacturers</h3><table class=\"grid\"><tr><td style=\"display: none\">-</td><td><b>Manufacturer</b></td></tr><tr><td style=\"display: none\">*</td><td><a href=\"#Organization_mapi-6f4987de7be1bbfa4ee92c07de7e94d4\">See above (Organization/mapi-6f4987de7be1bbfa4ee92c07de7e94d4)</a></td></tr></table><blockquote><p><b>substance</b></p><h3>Codes</h3><table class=\"grid\"><tr><td style=\"display: none\">-</td><td><b>Concept</b></td></tr><tr><td style=\"display: none\">*</td><td>Insulin Lispro <span style=\"background: LightGoldenRodYellow; margin: 4px; border: 1px solid khaki\"> (beta#GFX7QIS1II)</span></td></tr></table><h3>Strengths</h3><table class=\"grid\"><tr><td style=\"display: none\">-</td><td><b>Presentation[x]</b></td><td><b>Basis</b></td></tr><tr><td style=\"display: none\">*</td><td>100 U/ml<span style=\"background: LightGoldenRodYellow\"> (Details: UCUM code U/ml = 'U/ml')</span></td><td>active ingredient - basis of strength <span style=\"background: LightGoldenRodYellow; margin: 4px; border: 1px solid khaki\"> (<a href=\"http://terminology.hl7.org/5.3.0/CodeSystem-v3-RoleClass.html\">RoleClass</a>#ACTIB)</span></td></tr></table></blockquote></div>"
      },
      "identifier" : {
        "use" : "official",
        "system" : "https://gsrs.ncats.nih.gov/ginas/app/beta",
        "value" : "GFX7QIS1II"
      },
      "status" : "active",
      "for" : [{
        "reference" : "ManufacturedItemDefinition/mid-a38f06714db0c27b2ba704652e3f08c5"
      },
      {
        "reference" : "MedicinalProductDefinition/mpd33868162d255ced115cecbbf188aab4"
      },
      {
        "reference" : "AdministrableProductDefinition/ap-a38f06714db0c27b2ba704652e3f08c5"
      }],
      "role" : {
        "coding" : [{
          "system" : "https://spor.ema.europa.eu/rmswi",
          "code" : "72072",
          "display" : "active"
        }]
      },
      "manufacturer" : [{
        "manufacturer" : {
          "reference" : "Organization/mapi-6f4987de7be1bbfa4ee92c07de7e94d4"
        }
      }],
      "substance" : {
        "code" : {
          "concept" : {
            "coding" : [{
              "system" : "https://gsrs.ncats.nih.gov/ginas/app/beta",
              "code" : "GFX7QIS1II",
              "display" : "Insulin Lispro"
            }]
          }
        },
        "strength" : [{
          "presentationQuantity" : {
            "value" : 100,
            "system" : "http://unitsofmeasure.org",
            "code" : "U/ml"
          },
          "basis" : {
            "coding" : [{
              "system" : "http://terminology.hl7.org/CodeSystem/v3-RoleClass",
              "code" : "ACTIB",
              "display" : "active ingredient - basis of strength"
            }]
          }
        }]
      }
    }
  },
  {
    "fullUrl" : "http://hl7.eu/fhir/ig/gravitate-health/Ingredient/ingredient-for-humalog-zincoxide",
    "resource" : {
      "resourceType" : "Ingredient",
      "id" : "ingredient-for-humalog-zincoxide",
      "meta" : {
        "profile" : ["http://hl7.org/fhir/uv/emedicinal-product-info/StructureDefinition/Ingredient-uv-epi"]
      },
      "text" : {
        "status" : "generated",
        "div" : "<div xmlns=\"http://www.w3.org/1999/xhtml\"><p><b>Generated Narrative: Ingredient</b><a name=\"ingredient-for-humalog-zincoxide\"> </a></p><div style=\"display: inline-block; background-color: #d9e0e7; padding: 6px; margin: 4px; border: 1px solid #8da1b4; border-radius: 5px; line-height: 60%\"><p style=\"margin-bottom: 0px\">Resource Ingredient &quot;ingredient-for-humalog-zincoxide&quot; </p><p style=\"margin-bottom: 0px\">Profile: <a href=\"https://build.fhir.org/ig/HL7/emedicinal-product-info//StructureDefinition-Ingredient-uv-epi.html\">Ingredient (ePI)</a></p></div><p><b>identifier</b>: id:\u00a0SOI2LOH54Z\u00a0(use:\u00a0OFFICIAL)</p><p><b>status</b>: active</p><p><b>for</b>: </p><ul><li><a href=\"#ManufacturedItemDefinition_mid-a38f06714db0c27b2ba704652e3f08c5\">See above (ManufacturedItemDefinition/mid-a38f06714db0c27b2ba704652e3f08c5)</a></li><li><a href=\"#MedicinalProductDefinition_mpd33868162d255ced115cecbbf188aab4\">See above (MedicinalProductDefinition/mpd33868162d255ced115cecbbf188aab4)</a></li><li><a href=\"#AdministrableProductDefinition_ap-a38f06714db0c27b2ba704652e3f08c5\">See above (AdministrableProductDefinition/ap-a38f06714db0c27b2ba704652e3f08c5)</a></li></ul><p><b>role</b>: Excipient <span style=\"background: LightGoldenRodYellow; margin: 4px; border: 1px solid khaki\"> (rmswi#100000072082)</span></p><h3>Manufacturers</h3><table class=\"grid\"><tr><td style=\"display: none\">-</td><td><b>Manufacturer</b></td></tr><tr><td style=\"display: none\">*</td><td><a href=\"#Organization_mapi-6f4987de7be1bbfa4ee92c07de7e94d4\">See above (Organization/mapi-6f4987de7be1bbfa4ee92c07de7e94d4)</a></td></tr></table><blockquote><p><b>substance</b></p><h3>Codes</h3><table class=\"grid\"><tr><td style=\"display: none\">-</td><td><b>Concept</b></td></tr><tr><td style=\"display: none\">*</td><td>Zinc Oxide <span style=\"background: LightGoldenRodYellow; margin: 4px; border: 1px solid khaki\"> (beta#SOI2LOH54Z)</span></td></tr></table></blockquote></div>"
      },
      "identifier" : {
        "use" : "official",
        "system" : "https://gsrs.ncats.nih.gov/ginas/app/beta",
        "value" : "SOI2LOH54Z"
      },
      "status" : "active",
      "for" : [{
        "reference" : "ManufacturedItemDefinition/mid-a38f06714db0c27b2ba704652e3f08c5"
      },
      {
        "reference" : "MedicinalProductDefinition/mpd33868162d255ced115cecbbf188aab4"
      },
      {
        "reference" : "AdministrableProductDefinition/ap-a38f06714db0c27b2ba704652e3f08c5"
      }],
      "role" : {
        "coding" : [{
          "system" : "https://spor.ema.europa.eu/rmswi",
          "code" : "100000072082",
          "display" : "Excipient"
        }]
      },
      "manufacturer" : [{
        "manufacturer" : {
          "reference" : "Organization/mapi-6f4987de7be1bbfa4ee92c07de7e94d4"
        }
      }],
      "substance" : {
        "code" : {
          "concept" : {
            "coding" : [{
              "system" : "https://gsrs.ncats.nih.gov/ginas/app/beta",
              "code" : "SOI2LOH54Z",
              "display" : "Zinc Oxide"
            }]
          }
        }
      }
    }
  },
  {
    "fullUrl" : "http://hl7.eu/fhir/ig/gravitate-health/Ingredient/ingredient-for-humalog-metacresol",
    "resource" : {
      "resourceType" : "Ingredient",
      "id" : "ingredient-for-humalog-metacresol",
      "meta" : {
        "profile" : ["http://hl7.org/fhir/uv/emedicinal-product-info/StructureDefinition/Ingredient-uv-epi"]
      },
      "text" : {
        "status" : "generated",
        "div" : "<div xmlns=\"http://www.w3.org/1999/xhtml\"><p><b>Generated Narrative: Ingredient</b><a name=\"ingredient-for-humalog-metacresol\"> </a></p><div style=\"display: inline-block; background-color: #d9e0e7; padding: 6px; margin: 4px; border: 1px solid #8da1b4; border-radius: 5px; line-height: 60%\"><p style=\"margin-bottom: 0px\">Resource Ingredient &quot;ingredient-for-humalog-metacresol&quot; </p><p style=\"margin-bottom: 0px\">Profile: <a href=\"https://build.fhir.org/ig/HL7/emedicinal-product-info//StructureDefinition-Ingredient-uv-epi.html\">Ingredient (ePI)</a></p></div><p><b>identifier</b>: id:\u00a0GGO4Y809LO\u00a0(use:\u00a0OFFICIAL)</p><p><b>status</b>: active</p><p><b>for</b>: </p><ul><li><a href=\"#ManufacturedItemDefinition_mid-a38f06714db0c27b2ba704652e3f08c5\">See above (ManufacturedItemDefinition/mid-a38f06714db0c27b2ba704652e3f08c5)</a></li><li><a href=\"#MedicinalProductDefinition_mpd33868162d255ced115cecbbf188aab4\">See above (MedicinalProductDefinition/mpd33868162d255ced115cecbbf188aab4)</a></li><li><a href=\"#AdministrableProductDefinition_ap-a38f06714db0c27b2ba704652e3f08c5\">See above (AdministrableProductDefinition/ap-a38f06714db0c27b2ba704652e3f08c5)</a></li></ul><p><b>role</b>: Excipient <span style=\"background: LightGoldenRodYellow; margin: 4px; border: 1px solid khaki\"> (rmswi#100000072082)</span></p><h3>Manufacturers</h3><table class=\"grid\"><tr><td style=\"display: none\">-</td><td><b>Manufacturer</b></td></tr><tr><td style=\"display: none\">*</td><td><a href=\"#Organization_mapi-6f4987de7be1bbfa4ee92c07de7e94d4\">See above (Organization/mapi-6f4987de7be1bbfa4ee92c07de7e94d4)</a></td></tr></table><blockquote><p><b>substance</b></p><h3>Codes</h3><table class=\"grid\"><tr><td style=\"display: none\">-</td><td><b>Concept</b></td></tr><tr><td style=\"display: none\">*</td><td>Metacresol <span style=\"background: LightGoldenRodYellow; margin: 4px; border: 1px solid khaki\"> (beta#GGO4Y809LO)</span></td></tr></table></blockquote></div>"
      },
      "identifier" : {
        "use" : "official",
        "system" : "https://gsrs.ncats.nih.gov/ginas/app/beta",
        "value" : "GGO4Y809LO"
      },
      "status" : "active",
      "for" : [{
        "reference" : "ManufacturedItemDefinition/mid-a38f06714db0c27b2ba704652e3f08c5"
      },
      {
        "reference" : "MedicinalProductDefinition/mpd33868162d255ced115cecbbf188aab4"
      },
      {
        "reference" : "AdministrableProductDefinition/ap-a38f06714db0c27b2ba704652e3f08c5"
      }],
      "role" : {
        "coding" : [{
          "system" : "https://spor.ema.europa.eu/rmswi",
          "code" : "100000072082",
          "display" : "Excipient"
        }]
      },
      "manufacturer" : [{
        "manufacturer" : {
          "reference" : "Organization/mapi-6f4987de7be1bbfa4ee92c07de7e94d4"
        }
      }],
      "substance" : {
        "code" : {
          "concept" : {
            "coding" : [{
              "system" : "https://gsrs.ncats.nih.gov/ginas/app/beta",
              "code" : "GGO4Y809LO",
              "display" : "Metacresol"
            }]
          }
        }
      }
    }
  },
  {
    "fullUrl" : "http://hl7.eu/fhir/ig/gravitate-health/Ingredient/ingredient-for-humalog-trometamol",
    "resource" : {
      "resourceType" : "Ingredient",
      "id" : "ingredient-for-humalog-trometamol",
      "meta" : {
        "profile" : ["http://hl7.org/fhir/uv/emedicinal-product-info/StructureDefinition/Ingredient-uv-epi"]
      },
      "text" : {
        "status" : "generated",
        "div" : "<div xmlns=\"http://www.w3.org/1999/xhtml\"><p><b>Generated Narrative: Ingredient</b><a name=\"ingredient-for-humalog-trometamol\"> </a></p><div style=\"display: inline-block; background-color: #d9e0e7; padding: 6px; margin: 4px; border: 1px solid #8da1b4; border-radius: 5px; line-height: 60%\"><p style=\"margin-bottom: 0px\">Resource Ingredient &quot;ingredient-for-humalog-trometamol&quot; </p><p style=\"margin-bottom: 0px\">Profile: <a href=\"https://build.fhir.org/ig/HL7/emedicinal-product-info//StructureDefinition-Ingredient-uv-epi.html\">Ingredient (ePI)</a></p></div><p><b>identifier</b>: id:\u00a0023C2WHX2V\u00a0(use:\u00a0OFFICIAL)</p><p><b>status</b>: active</p><p><b>for</b>: </p><ul><li><a href=\"#ManufacturedItemDefinition_mid-a38f06714db0c27b2ba704652e3f08c5\">See above (ManufacturedItemDefinition/mid-a38f06714db0c27b2ba704652e3f08c5)</a></li><li><a href=\"#MedicinalProductDefinition_mpd33868162d255ced115cecbbf188aab4\">See above (MedicinalProductDefinition/mpd33868162d255ced115cecbbf188aab4)</a></li><li><a href=\"#AdministrableProductDefinition_ap-a38f06714db0c27b2ba704652e3f08c5\">See above (AdministrableProductDefinition/ap-a38f06714db0c27b2ba704652e3f08c5)</a></li></ul><p><b>role</b>: Excipient <span style=\"background: LightGoldenRodYellow; margin: 4px; border: 1px solid khaki\"> (rmswi#100000072082)</span></p><h3>Manufacturers</h3><table class=\"grid\"><tr><td style=\"display: none\">-</td><td><b>Manufacturer</b></td></tr><tr><td style=\"display: none\">*</td><td><a href=\"#Organization_mapi-6f4987de7be1bbfa4ee92c07de7e94d4\">See above (Organization/mapi-6f4987de7be1bbfa4ee92c07de7e94d4)</a></td></tr></table><blockquote><p><b>substance</b></p><h3>Codes</h3><table class=\"grid\"><tr><td style=\"display: none\">-</td><td><b>Concept</b></td></tr><tr><td style=\"display: none\">*</td><td>Trometamol <span style=\"background: LightGoldenRodYellow; margin: 4px; border: 1px solid khaki\"> (beta#023C2WHX2V)</span></td></tr></table></blockquote></div>"
      },
      "identifier" : {
        "use" : "official",
        "system" : "https://gsrs.ncats.nih.gov/ginas/app/beta",
        "value" : "023C2WHX2V"
      },
      "status" : "active",
      "for" : [{
        "reference" : "ManufacturedItemDefinition/mid-a38f06714db0c27b2ba704652e3f08c5"
      },
      {
        "reference" : "MedicinalProductDefinition/mpd33868162d255ced115cecbbf188aab4"
      },
      {
        "reference" : "AdministrableProductDefinition/ap-a38f06714db0c27b2ba704652e3f08c5"
      }],
      "role" : {
        "coding" : [{
          "system" : "https://spor.ema.europa.eu/rmswi",
          "code" : "100000072082",
          "display" : "Excipient"
        }]
      },
      "manufacturer" : [{
        "manufacturer" : {
          "reference" : "Organization/mapi-6f4987de7be1bbfa4ee92c07de7e94d4"
        }
      }],
      "substance" : {
        "code" : {
          "concept" : {
            "coding" : [{
              "system" : "https://gsrs.ncats.nih.gov/ginas/app/beta",
              "code" : "023C2WHX2V",
              "display" : "Trometamol"
            }]
          }
        }
      }
    }
  },
  {
    "fullUrl" : "http://hl7.eu/fhir/ig/gravitate-health/SubstanceDefinition/substance-insulinlispro",
    "resource" : {
      "resourceType" : "SubstanceDefinition",
      "id" : "substance-insulinlispro",
      "meta" : {
        "profile" : ["http://hl7.org/fhir/uv/emedicinal-product-info/StructureDefinition/SubstanceDefinition-uv-epi"]
      },
      "text" : {
        "status" : "generated",
        "div" : "<div xmlns=\"http://www.w3.org/1999/xhtml\"><p><b>Generated Narrative: SubstanceDefinition</b><a name=\"substance-insulinlispro\"> </a></p><div style=\"display: inline-block; background-color: #d9e0e7; padding: 6px; margin: 4px; border: 1px solid #8da1b4; border-radius: 5px; line-height: 60%\"><p style=\"margin-bottom: 0px\">Resource SubstanceDefinition &quot;substance-insulinlispro&quot; </p><p style=\"margin-bottom: 0px\">Profile: <a href=\"https://build.fhir.org/ig/HL7/emedicinal-product-info//StructureDefinition-SubstanceDefinition-uv-epi.html\">SubstanceDefinition (ePI)</a></p></div><p><b>identifier</b>: id:\u00a0GFX7QIS1II\u00a0(use:\u00a0OFFICIAL)</p><p><b>version</b>: 2</p><p><b>status</b>: Active <span style=\"background: LightGoldenRodYellow; margin: 4px; border: 1px solid khaki\"> (<a href=\"http://hl7.org/fhir/R5/codesystem-publication-status.html\">PublicationStatus</a>#active)</span></p><p><b>manufacturer</b>: <a href=\"#Organization_mah-3fdc76794516d7826890ab9f893e99c1\">See above (Organization/mah-3fdc76794516d7826890ab9f893e99c1)</a></p><h3>Structures</h3><table class=\"grid\"><tr><td style=\"display: none\">-</td><td><b>MolecularFormula</b></td></tr><tr><td style=\"display: none\">*</td><td>C257H382O75N65S6</td></tr></table><h3>Names</h3><table class=\"grid\"><tr><td style=\"display: none\">-</td><td><b>Name</b></td></tr><tr><td style=\"display: none\">*</td><td>28(SUP B)-L-LYSINE-29(SUP B)-L-PROLINEINSULIN (HUMAN)</td></tr></table></div>"
      },
      "identifier" : [{
        "use" : "official",
        "system" : "https://gsrs.ncats.nih.gov/ginas/app/beta/",
        "value" : "GFX7QIS1II"
      }],
      "version" : "2",
      "status" : {
        "coding" : [{
          "system" : "http://hl7.org/fhir/publication-status",
          "code" : "active"
        }]
      },
      "manufacturer" : [{
        "reference" : "Organization/mah-3fdc76794516d7826890ab9f893e99c1"
      }],
      "structure" : {
        "molecularFormula" : "C257H382O75N65S6"
      },
      "name" : [{
        "name" : "28(SUP B)-L-LYSINE-29(SUP B)-L-PROLINEINSULIN (HUMAN)"
      }]
    }
  },
  {
    "fullUrl" : "http://hl7.eu/fhir/ig/gravitate-health/AdministrableProductDefinition/ap-a38f06714db0c27b2ba704652e3f08c5",
    "resource" : {
      "resourceType" : "AdministrableProductDefinition",
      "id" : "ap-a38f06714db0c27b2ba704652e3f08c5",
      "meta" : {
        "profile" : ["http://hl7.org/fhir/uv/emedicinal-product-info/StructureDefinition/AdministrableProductDefinition-uv-epi"]
      },
      "text" : {
        "status" : "generated",
        "div" : "<div xmlns=\"http://www.w3.org/1999/xhtml\"><p><b>Generated Narrative: AdministrableProductDefinition</b><a name=\"ap-a38f06714db0c27b2ba704652e3f08c5\"> </a></p><div style=\"display: inline-block; background-color: #d9e0e7; padding: 6px; margin: 4px; border: 1px solid #8da1b4; border-radius: 5px; line-height: 60%\"><p style=\"margin-bottom: 0px\">Resource AdministrableProductDefinition &quot;ap-a38f06714db0c27b2ba704652e3f08c5&quot; </p><p style=\"margin-bottom: 0px\">Profile: <a href=\"https://build.fhir.org/ig/HL7/emedicinal-product-info//StructureDefinition-AdministrableProductDefinition-uv-epi.html\">AdministrableProductDefinition (ePI)</a></p></div><p><b>identifier</b>: id:\u00a0humalog-id</p><p><b>status</b>: active</p><p><b>formOf</b>: <a href=\"#MedicinalProductDefinition_mpd33868162d255ced115cecbbf188aab4\">See above (MedicinalProductDefinition/mpd33868162d255ced115cecbbf188aab4)</a></p><p><b>administrableDoseForm</b>: Suspension for injection <span style=\"background: LightGoldenRodYellow; margin: 4px; border: 1px solid khaki\"> (rmswi#100000073864)</span></p><p><b>unitOfPresentation</b>: Pen <span style=\"background: LightGoldenRodYellow; margin: 4px; border: 1px solid khaki\"> (rmswi#200000002135)</span></p><p><b>producedFrom</b>: <a href=\"#ManufacturedItemDefinition_mid-a38f06714db0c27b2ba704652e3f08c5\">See above (ManufacturedItemDefinition/mid-a38f06714db0c27b2ba704652e3f08c5)</a></p><blockquote><p><b>routeOfAdministration</b></p><p><b>code</b>: Subcutaneous use <span style=\"background: LightGoldenRodYellow; margin: 4px; border: 1px solid khaki\"> (rmswi#100000073633)</span></p><h3>TargetSpecies</h3><table class=\"grid\"><tr><td style=\"display: none\">-</td><td><b>Code</b></td></tr><tr><td style=\"display: none\">*</td><td>Human <span style=\"background: LightGoldenRodYellow; margin: 4px; border: 1px solid khaki\"> (rmswi#100000109093)</span></td></tr></table></blockquote></div>"
      },
      "identifier" : [{
        "system" : "https://www.who-umc.org/phpid",
        "value" : "humalog-id"
      }],
      "status" : "active",
      "formOf" : [{
        "reference" : "MedicinalProductDefinition/mpd33868162d255ced115cecbbf188aab4"
      }],
      "administrableDoseForm" : {
        "coding" : [{
          "system" : "https://spor.ema.europa.eu/rmswi",
          "code" : "100000073864",
          "display" : "Suspension for injection"
        }]
      },
      "unitOfPresentation" : {
        "coding" : [{
          "system" : "https://spor.ema.europa.eu/rmswi",
          "code" : "200000002135",
          "display" : "Pen"
        }]
      },
      "producedFrom" : [{
        "reference" : "ManufacturedItemDefinition/mid-a38f06714db0c27b2ba704652e3f08c5"
      }],
      "routeOfAdministration" : [{
        "code" : {
          "coding" : [{
            "system" : "https://spor.ema.europa.eu/rmswi",
            "code" : "100000073633",
            "display" : "Subcutaneous use"
          }]
        },
        "targetSpecies" : [{
          "code" : {
            "coding" : [{
              "system" : "https://spor.ema.europa.eu/rmswi",
              "code" : "100000109093",
              "display" : "Human"
            }]
          }
        }]
      }]
    }
  },
  {
    "fullUrl" : "http://hl7.eu/fhir/ig/gravitate-health/RegulatedAuthorization/authorization35570a7ffa4ad1ddf8a920b1728d4cd2",
    "resource" : {
      "resourceType" : "RegulatedAuthorization",
      "id" : "authorization35570a7ffa4ad1ddf8a920b1728d4cd2",
      "meta" : {
        "profile" : ["http://hl7.org/fhir/uv/emedicinal-product-info/StructureDefinition/RegulatedAuthorization-uv-epi"]
      },
      "text" : {
        "status" : "generated",
        "div" : "<div xmlns=\"http://www.w3.org/1999/xhtml\"><p><b>Generated Narrative: RegulatedAuthorization</b><a name=\"authorization35570a7ffa4ad1ddf8a920b1728d4cd2\"> </a></p><div style=\"display: inline-block; background-color: #d9e0e7; padding: 6px; margin: 4px; border: 1px solid #8da1b4; border-radius: 5px; line-height: 60%\"><p style=\"margin-bottom: 0px\">Resource RegulatedAuthorization &quot;authorization35570a7ffa4ad1ddf8a920b1728d4cd2&quot; </p><p style=\"margin-bottom: 0px\">Profile: <a href=\"https://build.fhir.org/ig/HL7/emedicinal-product-info//StructureDefinition-RegulatedAuthorization-uv-epi.html\">RegulatedAuthorization (ePI)</a></p></div><p><b>identifier</b>: id:\u00a0EU/1/96/007/035\u00a0(use:\u00a0OFFICIAL)</p><p><b>subject</b>: <a href=\"#MedicinalProductDefinition_mpd33868162d255ced115cecbbf188aab4\">See above (MedicinalProductDefinition/mpd33868162d255ced115cecbbf188aab4)</a></p><p><b>type</b>: Marketing Authorisation <span style=\"background: LightGoldenRodYellow; margin: 4px; border: 1px solid khaki\"> (rmswi#100000072062)</span></p><p><b>status</b>: Active <span style=\"background: LightGoldenRodYellow; margin: 4px; border: 1px solid khaki\"> (<a href=\"http://hl7.org/fhir/R5/codesystem-publication-status.html\">PublicationStatus</a>#active)</span></p><p><b>statusDate</b>: 2015-02-07 13:28:17+0000</p><p><b>holder</b>: <a href=\"#Organization_mah-3fdc76794516d7826890ab9f893e99c1\">See above (Organization/mah-3fdc76794516d7826890ab9f893e99c1)</a></p></div>"
      },
      "identifier" : [{
        "use" : "official",
        "system" : "https://spor.ema.europa.eu/pmswi",
        "value" : "EU/1/96/007/035"
      }],
      "subject" : [{
        "reference" : "MedicinalProductDefinition/mpd33868162d255ced115cecbbf188aab4"
      }],
      "type" : {
        "coding" : [{
          "system" : "https://spor.ema.europa.eu/rmswi",
          "code" : "100000072062",
          "display" : "Marketing Authorisation"
        }]
      },
      "status" : {
        "coding" : [{
          "system" : "http://hl7.org/fhir/publication-status",
          "code" : "active",
          "display" : "Active"
        }]
      },
      "statusDate" : "2015-02-07T13:28:17Z",
      "holder" : {
        "reference" : "Organization/mah-3fdc76794516d7826890ab9f893e99c1"
      }
    }
  },
  {
    "fullUrl" : "http://hl7.eu/fhir/ig/gravitate-health/Organization/mah-3fdc76794516d7826890ab9f893e99c1",
    "resource" : {
      "resourceType" : "Organization",
      "id" : "mah-3fdc76794516d7826890ab9f893e99c1",
      "meta" : {
        "profile" : ["http://hl7.org/fhir/uv/emedicinal-product-info/StructureDefinition/Organization-uv-epi"]
      },
      "text" : {
        "status" : "generated",
        "div" : "<div xmlns=\"http://www.w3.org/1999/xhtml\"><p><b>Generated Narrative: Organization</b><a name=\"mah-3fdc76794516d7826890ab9f893e99c1\"> </a></p><div style=\"display: inline-block; background-color: #d9e0e7; padding: 6px; margin: 4px; border: 1px solid #8da1b4; border-radius: 5px; line-height: 60%\"><p style=\"margin-bottom: 0px\">Resource Organization &quot;mah-3fdc76794516d7826890ab9f893e99c1&quot; </p><p style=\"margin-bottom: 0px\">Profile: <a href=\"https://build.fhir.org/ig/HL7/emedicinal-product-info//StructureDefinition-Organization-uv-epi.html\">Organization (ePI)</a></p></div><p><b>identifier</b>: id:\u00a0ORG-100000426\u00a0(use:\u00a0OFFICIAL)</p><p><b>active</b>: true</p><p><b>type</b>: Marketing authorisation holder <span style=\"background: LightGoldenRodYellow; margin: 4px; border: 1px solid khaki\"> (rmswi#220000000034)</span></p><p><b>name</b>: Eli Lilly Nederland B.V.</p><h3>Contacts</h3><table class=\"grid\"><tr><td style=\"display: none\">-</td><td><b>Address</b></td></tr><tr><td style=\"display: none\">*</td><td>Papendorpseweg 83, 3528 BJ Utrecht NL(WORK)</td></tr></table></div>"
      },
      "identifier" : [{
        "use" : "official",
        "system" : "https://spor.ema.europa.eu/omswi",
        "value" : "ORG-100000426"
      }],
      "active" : true,
      "type" : [{
        "coding" : [{
          "system" : "https://spor.ema.europa.eu/rmswi",
          "code" : "220000000034",
          "display" : "Marketing authorisation holder"
        }]
      }],
      "name" : "Eli Lilly Nederland B.V.",
      "contact" : [{
        "address" : {
          "use" : "work",
          "type" : "physical",
          "text" : "Papendorpseweg 83, 3528 BJ Utrecht NL",
          "line" : ["Papendorpseweg 83, 3528 BJ"],
          "city" : "Utrecht",
          "country" : "NL"
        }
      }]
    }
  },
  {
    "fullUrl" : "http://hl7.eu/fhir/ig/gravitate-health/Organization/mapi-6f4987de7be1bbfa4ee92c07de7e94d4",
    "resource" : {
      "resourceType" : "Organization",
      "id" : "mapi-6f4987de7be1bbfa4ee92c07de7e94d4",
      "meta" : {
        "profile" : ["http://hl7.org/fhir/uv/emedicinal-product-info/StructureDefinition/Organization-uv-epi"]
      },
      "text" : {
        "status" : "generated",
        "div" : "<div xmlns=\"http://www.w3.org/1999/xhtml\"><p><b>Generated Narrative: Organization</b><a name=\"mapi-6f4987de7be1bbfa4ee92c07de7e94d4\"> </a></p><div style=\"display: inline-block; background-color: #d9e0e7; padding: 6px; margin: 4px; border: 1px solid #8da1b4; border-radius: 5px; line-height: 60%\"><p style=\"margin-bottom: 0px\">Resource Organization &quot;mapi-6f4987de7be1bbfa4ee92c07de7e94d4&quot; </p><p style=\"margin-bottom: 0px\">Profile: <a href=\"https://build.fhir.org/ig/HL7/emedicinal-product-info//StructureDefinition-Organization-uv-epi.html\">Organization (ePI)</a></p></div><p><b>identifier</b>: id:\u00a0ORG-100000156\u00a0(use:\u00a0OFFICIAL)</p><p><b>active</b>: true</p><p><b>type</b>: Manufacturer <span style=\"background: LightGoldenRodYellow; margin: 4px; border: 1px solid khaki\"> (rmswi#220000000033)</span></p><p><b>name</b>: Eli Lilly and Company</p><h3>Contacts</h3><table class=\"grid\"><tr><td style=\"display: none\">-</td><td><b>Address</b></td></tr><tr><td style=\"display: none\">*</td><td>Lilly Technology Center Building 333 and 324, Indianapolis, Indiana, USA Indianapolis US(WORK)</td></tr></table></div>"
      },
      "identifier" : [{
        "use" : "official",
        "system" : "https://spor.ema.europa.eu/omswi",
        "value" : "ORG-100000156"
      }],
      "active" : true,
      "type" : [{
        "coding" : [{
          "system" : "https://spor.ema.europa.eu/rmswi",
          "code" : "220000000033",
          "display" : "Manufacturer"
        }]
      }],
      "name" : "Eli Lilly and Company",
      "contact" : [{
        "address" : {
          "use" : "work",
          "type" : "physical",
          "text" : "Lilly Technology Center Building 333 and 324, Indianapolis, Indiana, USA Indianapolis US",
          "line" : ["Lilly Technology Center Building 333 and 324, Indianapolis, Indiana, USA"],
          "city" : "Indianapolis",
          "country" : "US"
        }
      }]
    }
  },
  {
    "fullUrl" : "http://hl7.eu/fhir/ig/gravitate-health/Organization/man-e3ef26dd2c7a0847d92d3bb1a64855b9",
    "resource" : {
      "resourceType" : "Organization",
      "id" : "man-e3ef26dd2c7a0847d92d3bb1a64855b9",
      "meta" : {
        "profile" : ["http://hl7.org/fhir/uv/emedicinal-product-info/StructureDefinition/Organization-uv-epi"]
      },
      "text" : {
        "status" : "generated",
        "div" : "<div xmlns=\"http://www.w3.org/1999/xhtml\"><p><b>Generated Narrative: Organization</b><a name=\"man-e3ef26dd2c7a0847d92d3bb1a64855b9\"> </a></p><div style=\"display: inline-block; background-color: #d9e0e7; padding: 6px; margin: 4px; border: 1px solid #8da1b4; border-radius: 5px; line-height: 60%\"><p style=\"margin-bottom: 0px\">Resource Organization &quot;man-e3ef26dd2c7a0847d92d3bb1a64855b9&quot; </p><p style=\"margin-bottom: 0px\">Profile: <a href=\"https://build.fhir.org/ig/HL7/emedicinal-product-info//StructureDefinition-Organization-uv-epi.html\">Organization (ePI)</a></p></div><p><b>identifier</b>: id:\u00a0ORG-100003996\u00a0(use:\u00a0OFFICIAL)</p><p><b>active</b>: true</p><p><b>type</b>: Manufacturer <span style=\"background: LightGoldenRodYellow; margin: 4px; border: 1px solid khaki\"> (rmswi#220000000033)</span></p><p><b>name</b>: Lilly S.A.</p><h3>Contacts</h3><table class=\"grid\"><tr><td style=\"display: none\">-</td><td><b>Address</b></td></tr><tr><td style=\"display: none\">*</td><td>Avenida de la Industria 30, 28108 Alcobendas, Madrid, Spain Alcobendas ES(WORK)</td></tr></table></div>"
      },
      "identifier" : [{
        "use" : "official",
        "system" : "https://spor.ema.europa.eu/omswi",
        "value" : "ORG-100003996"
      }],
      "active" : true,
      "type" : [{
        "coding" : [{
          "system" : "https://spor.ema.europa.eu/rmswi",
          "code" : "220000000033",
          "display" : "Manufacturer"
        }]
      }],
      "name" : "Lilly S.A.",
      "contact" : [{
        "address" : {
          "use" : "work",
          "type" : "physical",
          "text" : "Avenida de la Industria 30, 28108 Alcobendas, Madrid, Spain Alcobendas ES",
          "line" : ["Avenida de la Industria 30, 28108 Alcobendas, Madrid, Spain"],
          "city" : "Alcobendas",
          "country" : "ES"
        }
      }]
    }
  },
  {
    "fullUrl" : "http://hl7.eu/fhir/ig/gravitate-health/PackagedProductDefinition/ppd-a38f06714db0c27b2ba704652e3f08c5",
    "resource" : {
      "resourceType" : "PackagedProductDefinition",
      "id" : "ppd-a38f06714db0c27b2ba704652e3f08c5",
      "meta" : {
        "profile" : ["http://hl7.org/fhir/uv/emedicinal-product-info/StructureDefinition/PackagedProductDefinition-uv-epi"]
      },
      "text" : {
        "status" : "generated",
        "div" : "<div xmlns=\"http://www.w3.org/1999/xhtml\"><p><b>Generated Narrative: PackagedProductDefinition</b><a name=\"ppd-a38f06714db0c27b2ba704652e3f08c5\"> </a></p><div style=\"display: inline-block; background-color: #d9e0e7; padding: 6px; margin: 4px; border: 1px solid #8da1b4; border-radius: 5px; line-height: 60%\"><p style=\"margin-bottom: 0px\">Resource PackagedProductDefinition &quot;ppd-a38f06714db0c27b2ba704652e3f08c5&quot; </p><p style=\"margin-bottom: 0px\">Profile: <a href=\"https://build.fhir.org/ig/HL7/emedicinal-product-info//StructureDefinition-PackagedProductDefinition-uv-epi.html\">PackagedProductDefinition (ePI)</a></p></div><p><b>identifier</b>: id:\u00a0EU/1/96/007/035\u00a0(use:\u00a0OFFICIAL)</p><p><b>name</b>: Humalog Mix50 Insulin KwikPen, 100 U/ml, Suspension for injection 3ml pre-fill</p><p><b>type</b>: Chemical Medicinal Prodcut <span style=\"background: LightGoldenRodYellow; margin: 4px; border: 1px solid khaki\"> (rmswi#100000155527)</span></p><p><b>packageFor</b>: <a href=\"#MedicinalProductDefinition_mpd33868162d255ced115cecbbf188aab4\">See above (MedicinalProductDefinition/mpd33868162d255ced115cecbbf188aab4)</a></p><p><b>status</b>: Active <span style=\"background: LightGoldenRodYellow; margin: 4px; border: 1px solid khaki\"> (<a href=\"http://hl7.org/fhir/R5/codesystem-publication-status.html\">PublicationStatus</a>#active)</span></p><p><b>statusDate</b>: 2015-02-07 13:28:17+0000</p><p><b>containedItemQuantity</b>: 3 ml<span style=\"background: LightGoldenRodYellow\"> (Details: UCUM code ml = 'ml')</span></p><p><b>manufacturer</b>: <a href=\"#Organization_man-e3ef26dd2c7a0847d92d3bb1a64855b9\">See above (Organization/man-e3ef26dd2c7a0847d92d3bb1a64855b9)</a></p><blockquote><p><b>packaging</b></p><p><b>identifier</b>: id:\u00a0mock-id</p><p><b>type</b>: Box <span style=\"background: LightGoldenRodYellow; margin: 4px; border: 1px solid khaki\"> (rmswi#100000073498)</span></p><p><b>quantity</b>: 1</p><h3>Packagings</h3><table class=\"grid\"><tr><td style=\"display: none\">-</td><td><b>Identifier</b></td><td><b>Type</b></td><td><b>Quantity</b></td><td><b>Material</b></td></tr><tr><td style=\"display: none\">*</td><td>id:\u00a0123456</td><td>Pre-filled pen <span style=\"background: LightGoldenRodYellow; margin: 4px; border: 1px solid khaki\"> (rmswi#100000073543)</span></td><td>5</td><td>Glass type 1 <span style=\"background: LightGoldenRodYellow; margin: 4px; border: 1px solid khaki\"> (rmswi#200000003204)</span></td></tr></table></blockquote></div>"
      },
      "identifier" : [{
        "use" : "official",
        "system" : "https://spor.ema.europa.eu/pmswi",
        "value" : "EU/1/96/007/035"
      }],
      "name" : "Humalog Mix50 Insulin KwikPen, 100 U/ml, Suspension for injection 3ml pre-fill",
      "type" : {
        "coding" : [{
          "system" : "https://spor.ema.europa.eu/rmswi",
          "code" : "100000155527",
          "display" : "Chemical Medicinal Prodcut"
        }]
      },
      "packageFor" : [{
        "reference" : "MedicinalProductDefinition/mpd33868162d255ced115cecbbf188aab4"
      }],
      "status" : {
        "coding" : [{
          "system" : "http://hl7.org/fhir/publication-status",
          "code" : "active",
          "display" : "Active"
        }]
      },
      "statusDate" : "2015-02-07T13:28:17Z",
      "containedItemQuantity" : [{
        "value" : 3,
        "system" : "http://unitsofmeasure.org",
        "code" : "ml"
      }],
      "manufacturer" : [{
        "reference" : "Organization/man-e3ef26dd2c7a0847d92d3bb1a64855b9"
      }],
      "packaging" : {
        "identifier" : [{
          "system" : "https://spor.ema.europa.eu/pmswi",
          "value" : "mock-id"
        }],
        "type" : {
          "coding" : [{
            "system" : "https://spor.ema.europa.eu/rmswi",
            "code" : "100000073498",
            "display" : "Box"
          }]
        },
        "quantity" : 1,
        "packaging" : [{
          "identifier" : [{
            "system" : "https://spor.ema.europa.eu/pmswi",
            "value" : "123456"
          }],
          "type" : {
            "coding" : [{
              "system" : "https://spor.ema.europa.eu/rmswi",
              "code" : "100000073543",
              "display" : "Pre-filled pen"
            }]
          },
          "quantity" : 5,
          "material" : [{
            "coding" : [{
              "system" : "https://spor.ema.europa.eu/rmswi",
              "code" : "200000003204",
              "display" : "Glass type 1"
            }]
          }]
        }]
      }
    }
  },
  {
    "fullUrl" : "http://hl7.eu/fhir/ig/gravitate-health/MedicinalProductDefinition/mpd33868162d255ced115cecbbf188aab4",
    "resource" : {
      "resourceType" : "MedicinalProductDefinition",
      "id" : "mpd33868162d255ced115cecbbf188aab4",
      "meta" : {
        "profile" : ["http://hl7.org/fhir/uv/emedicinal-product-info/StructureDefinition/MedicinalProductDefinition-uv-epi"]
      },
      "text" : {
        "status" : "generated",
        "div" : "<div xmlns=\"http://www.w3.org/1999/xhtml\"><p><b>Generated Narrative: MedicinalProductDefinition</b><a name=\"mpd33868162d255ced115cecbbf188aab4\"> </a></p><div style=\"display: inline-block; background-color: #d9e0e7; padding: 6px; margin: 4px; border: 1px solid #8da1b4; border-radius: 5px; line-height: 60%\"><p style=\"margin-bottom: 0px\">Resource MedicinalProductDefinition &quot;mpd33868162d255ced115cecbbf188aab4&quot; </p><p style=\"margin-bottom: 0px\">Profile: <a href=\"https://build.fhir.org/ig/HL7/emedicinal-product-info//StructureDefinition-MedicinalProductDefinition-uv-epi.html\">MedicinalProductDefinition (ePI)</a></p></div><p><b>identifier</b>: id:\u00a0EU/1/96/007/035, id:\u00a00xF79CABF272B6A7EEF104DDDA44E82717</p><p><b>type</b>: Medicinal Product <span style=\"background: LightGoldenRodYellow; margin: 4px; border: 1px solid khaki\"> (<a href=\"http://hl7.org/fhir/R5/codesystem-medicinal-product-type.html\">Medicinal Product Type</a>#MedicinalProduct)</span></p><p><b>domain</b>: Human use <span style=\"background: LightGoldenRodYellow; margin: 4px; border: 1px solid khaki\"> (<a href=\"http://hl7.org/fhir/R5/codesystem-medicinal-product-domain.html\">Medicinal Product Domain</a>#Human)</span></p><p><b>status</b>: active <span style=\"background: LightGoldenRodYellow; margin: 4px; border: 1px solid khaki\"> (<a href=\"http://hl7.org/fhir/R5/codesystem-publication-status.html\">PublicationStatus</a>#active)</span></p><p><b>legalStatusOfSupply</b>: Medicinal product subject to medical prescription <span style=\"background: LightGoldenRodYellow; margin: 4px; border: 1px solid khaki\"> (rmswi#100000072084)</span></p><p><b>classification</b>: insulin lispro <span style=\"background: LightGoldenRodYellow; margin: 4px; border: 1px solid khaki\"> (<a href=\"http://terminology.hl7.org/5.3.0/CodeSystem-v3-WC.html\">WHO ATC</a>#A10AB04)</span></p><blockquote><p><b>name</b></p><p><b>productName</b>: Humalog Mix50 Insulin KwikPen, 100 U/ml, Suspension for injection 3ml pre-fill</p><p><b>type</b>: Full name <span style=\"background: LightGoldenRodYellow; margin: 4px; border: 1px solid khaki\"> (220000000000#220000000001)</span></p><blockquote><p><b>part</b></p><p><b>part</b>: Humalog</p><p><b>type</b>: Invented name part <span style=\"background: LightGoldenRodYellow; margin: 4px; border: 1px solid khaki\"> (220000000000#220000000002)</span></p></blockquote><blockquote><p><b>part</b></p><p><b>part</b>: insulin lispro</p><p><b>type</b>: Scientific name part <span style=\"background: LightGoldenRodYellow; margin: 4px; border: 1px solid khaki\"> (220000000000#220000000003)</span></p></blockquote><blockquote><p><b>part</b></p><p><b>part</b>: 100 U/ml</p><p><b>type</b>: Strength part <span style=\"background: LightGoldenRodYellow; margin: 4px; border: 1px solid khaki\"> (220000000000#220000000004)</span></p></blockquote><blockquote><p><b>part</b></p><p><b>part</b>: Suspension for injection</p><p><b>type</b>: Pharmaceutical dose form part <span style=\"background: LightGoldenRodYellow; margin: 4px; border: 1px solid khaki\"> (220000000000#220000000005)</span></p></blockquote><h3>Usages</h3><table class=\"grid\"><tr><td style=\"display: none\">-</td><td><b>Country</b></td><td><b>Jurisdiction</b></td><td><b>Language</b></td></tr><tr><td style=\"display: none\">*</td><td>Denmark <span style=\"background: LightGoldenRodYellow; margin: 4px; border: 1px solid khaki\"> (<a href=\"http://terminology.hl7.org/5.3.0/CodeSystem-ISO3166Part1.html\">ISO 3166-1 Codes for the representation of names of countries and their subdivisions — Part 1: Country code</a>#DK)</span></td><td>Denmark <span style=\"background: LightGoldenRodYellow; margin: 4px; border: 1px solid khaki\"> (<a href=\"http://terminology.hl7.org/5.3.0/CodeSystem-ISO3166Part1.html\">ISO 3166-1 Codes for the representation of names of countries and their subdivisions — Part 1: Country code</a>#DK)</span></td><td>English <span style=\"background: LightGoldenRodYellow; margin: 4px; border: 1px solid khaki\"> (<a href=\"http://terminology.hl7.org/5.3.0/CodeSystem-v3-ietf3066.html\">Tags for the Identification of Languages</a>#en)</span></td></tr></table></blockquote></div>"
      },
      "identifier" : [{
        "system" : "https://spor.ema.europa.eu/pmswi",
        "value" : "EU/1/96/007/035"
      },
      {
        "system" : "https://www.who-umc.org/phpid",
        "value" : "0xF79CABF272B6A7EEF104DDDA44E82717"
      }],
      "type" : {
        "coding" : [{
          "system" : "http://hl7.org/fhir/medicinal-product-type",
          "code" : "MedicinalProduct",
          "display" : "Medicinal Product"
        }]
      },
      "domain" : {
        "coding" : [{
          "system" : "http://hl7.org/fhir/medicinal-product-domain",
          "code" : "Human",
          "display" : "Human use"
        }]
      },
      "status" : {
        "coding" : [{
          "system" : "http://hl7.org/fhir/publication-status",
          "code" : "active",
          "display" : "active"
        }]
      },
      "legalStatusOfSupply" : {
        "coding" : [{
          "system" : "https://spor.ema.europa.eu/rmswi",
          "code" : "100000072084",
          "display" : "Medicinal product subject to medical prescription"
        }]
      },
      "classification" : [{
        "coding" : [{
          "system" : "http://www.whocc.no/atc",
          "code" : "A10AB04",
          "display" : "insulin lispro"
        }]
      }],
      "name" : [{
        "productName" : "Humalog Mix50 Insulin KwikPen, 100 U/ml, Suspension for injection 3ml pre-fill",
        "type" : {
          "coding" : [{
            "system" : "https://spor.ema.europa.eu/lists/220000000000",
            "code" : "220000000001"
          }],
          "text" : "Full name"
        },
        "part" : [{
          "part" : "Humalog",
          "type" : {
            "coding" : [{
              "system" : "https://spor.ema.europa.eu/lists/220000000000",
              "code" : "220000000002"
            }],
            "text" : "Invented name part"
          }
        },
        {
          "part" : "insulin lispro",
          "type" : {
            "coding" : [{
              "system" : "https://spor.ema.europa.eu/lists/220000000000",
              "code" : "220000000003"
            }],
            "text" : "Scientific name part"
          }
        },
        {
          "part" : "100 U/ml",
          "type" : {
            "coding" : [{
              "system" : "https://spor.ema.europa.eu/lists/220000000000",
              "code" : "220000000004"
            }],
            "text" : "Strength part"
          }
        },
        {
          "part" : "Suspension for injection",
          "type" : {
            "coding" : [{
              "system" : "https://spor.ema.europa.eu/lists/220000000000",
              "code" : "220000000005"
            }],
            "text" : "Pharmaceutical dose form part"
          }
        }],
        "usage" : [{
          "country" : {
            "coding" : [{
              "system" : "urn:iso:std:iso:3166",
              "code" : "DK",
              "display" : "Denmark"
            }]
          },
          "jurisdiction" : {
            "coding" : [{
              "system" : "urn:iso:std:iso:3166",
              "code" : "DK",
              "display" : "Denmark"
            }]
          },
          "language" : {
            "coding" : [{
              "system" : "urn:ietf:bcp:47",
              "code" : "en",
              "display" : "English"
            }]
          }
        }]
      }]
    }
  },
  {
    "fullUrl" : "http://hl7.eu/fhir/ig/gravitate-health/ManufacturedItemDefinition/mid-a38f06714db0c27b2ba704652e3f08c5",
    "resource" : {
      "resourceType" : "ManufacturedItemDefinition",
      "id" : "mid-a38f06714db0c27b2ba704652e3f08c5",
      "meta" : {
        "profile" : ["http://hl7.org/fhir/uv/emedicinal-product-info/StructureDefinition/ManufacturedItemDefinition-uv-epi"]
      },
      "text" : {
        "status" : "generated",
        "div" : "<div xmlns=\"http://www.w3.org/1999/xhtml\"><p><b>Generated Narrative: ManufacturedItemDefinition</b><a name=\"mid-a38f06714db0c27b2ba704652e3f08c5\"> </a></p><div style=\"display: inline-block; background-color: #d9e0e7; padding: 6px; margin: 4px; border: 1px solid #8da1b4; border-radius: 5px; line-height: 60%\"><p style=\"margin-bottom: 0px\">Resource ManufacturedItemDefinition &quot;mid-a38f06714db0c27b2ba704652e3f08c5&quot; </p><p style=\"margin-bottom: 0px\">Profile: <a href=\"https://build.fhir.org/ig/HL7/emedicinal-product-info//StructureDefinition-ManufacturedItemDefinition-uv-epi.html\">ManufacturedItemDefinition (ePI)</a></p></div><p><b>identifier</b>: id:\u00a0EU/1/96/007/035\u00a0(use:\u00a0OFFICIAL)</p><p><b>status</b>: active</p><p><b>manufacturedDoseForm</b>: Suspension for injection <span style=\"background: LightGoldenRodYellow; margin: 4px; border: 1px solid khaki\"> (#100000073864)</span></p><p><b>unitOfPresentation</b>: Pen <span style=\"background: LightGoldenRodYellow; margin: 4px; border: 1px solid khaki\"> (rmswi#200000002135)</span></p><p><b>manufacturer</b>: <a href=\"#Organization_man-e3ef26dd2c7a0847d92d3bb1a64855b9\">See above (Organization/man-e3ef26dd2c7a0847d92d3bb1a64855b9)</a></p></div>"
      },
      "identifier" : [{
        "use" : "official",
        "system" : "https://spor.ema.europa.eu/pmswi",
        "value" : "EU/1/96/007/035"
      }],
      "status" : "active",
      "manufacturedDoseForm" : {
        "coding" : [{
          "system" : "https://spor.ema.europa.eu/rmswi/",
          "code" : "100000073864",
          "display" : "Suspension for injection"
        }]
      },
      "unitOfPresentation" : {
        "coding" : [{
          "system" : "https://spor.ema.europa.eu/rmswi",
          "code" : "200000002135",
          "display" : "Pen"
        }]
      },
      "manufacturer" : [{
        "reference" : "Organization/man-e3ef26dd2c7a0847d92d3bb1a64855b9"
      }]
    }
  }]
}