{
  "resourceType" : "Bundle",
  "id" : "enhanced-bundlekarveacalcium-alicia",
  "meta" : {
    "profile" : ["http://hl7.org/fhir/uv/emedicinal-product-info/StructureDefinition/Bundle-uv-epi"]
  },
  "language" : "en",
  "identifier" : {
    "system" : "https://www.gravitatehealth.eu/sid/doc",
    "value" : "EU/1/97/049/001"
  },
  "type" : "document",
  "timestamp" : "2023-04-25T11:55:27Z",
  "entry" : [{
    "fullUrl" : "http://hl7.eu/fhir/ig/gravitate-health/Composition/enhanced-composition02e928f15b7b861b4b44915d9f1330ec",
    "resource" : {
      "resourceType" : "Composition",
      "id" : "enhanced-composition02e928f15b7b861b4b44915d9f1330ec",
      "meta" : {
        "profile" : ["http://hl7.org/fhir/uv/emedicinal-product-info/StructureDefinition/Composition-uv-epi"]
      },
      "language" : "es",
      "text" : {
        "status" : "extensions",
        "div" : "<div xmlns=\"http://www.w3.org/1999/xhtml\" xml:lang=\"es\" lang=\"es\"><p><b>Generated Narrative: Composition</b><a name=\"enhanced-composition02e928f15b7b861b4b44915d9f1330ec\"> </a></p><div style=\"display: inline-block; background-color: #d9e0e7; padding: 6px; margin: 4px; border: 1px solid #8da1b4; border-radius: 5px; line-height: 60%\"><p style=\"margin-bottom: 0px\">Resource Composition &quot;enhanced-composition02e928f15b7b861b4b44915d9f1330ec&quot;  (Language &quot;es&quot;) </p><p style=\"margin-bottom: 0px\">Profile: <a href=\"https://build.fhir.org/ig/HL7/emedicinal-product-info//StructureDefinition-Composition-uv-epi.html\">Composition (ePI)</a></p></div><blockquote><p><b>HtmlElementLink</b></p><blockquote><p><b>url</b></p><code>elementClass</code></blockquote><p><b>value</b>: pregnancyCategory</p><blockquote><p><b>url</b></p><code>concept</code></blockquote><p><b>value</b>: Pregnancy <span style=\"background: LightGoldenRodYellow; margin: 4px; border: 1px solid khaki\"> (<a href=\"https://browser.ihtsdotools.org/\">SNOMED CT</a>#77386006)</span></p></blockquote><blockquote><p><b>HtmlElementLink</b></p><blockquote><p><b>url</b></p><code>elementClass</code></blockquote><p><b>value</b>: pregnancyCategory</p><blockquote><p><b>url</b></p><code>concept</code></blockquote><p><b>value</b>: Pregnancy <span style=\"background: LightGoldenRodYellow; margin: 4px; border: 1px solid khaki\"> (#W78)</span></p></blockquote><blockquote><p><b>HtmlElementLink</b></p><blockquote><p><b>url</b></p><code>elementClass</code></blockquote><p><b>value</b>: breastfeedingCategory</p><blockquote><p><b>url</b></p><code>concept</code></blockquote><p><b>value</b>: Normal breast feeding (finding) <span style=\"background: LightGoldenRodYellow; margin: 4px; border: 1px solid khaki\"> (<a href=\"https://browser.ihtsdotools.org/\">SNOMED CT</a>#69840006)</span></p></blockquote><blockquote><p><b>HtmlElementLink</b></p><blockquote><p><b>url</b></p><code>elementClass</code></blockquote><p><b>value</b>: liver</p><blockquote><p><b>url</b></p><code>concept</code></blockquote><p><b>value</b>: Liver disease, other <span style=\"background: LightGoldenRodYellow; margin: 4px; border: 1px solid khaki\"> (#D97)</span></p></blockquote><p><b>identifier</b>: id:\u00a0cc</p><p><b>status</b>: final</p><p><b>type</b>: Package Leaflet <span style=\"background: LightGoldenRodYellow; margin: 4px; border: 1px solid khaki\"> (#100000155538)</span></p><p><b>category</b>: Focused <span style=\"background: LightGoldenRodYellow; margin: 4px; border: 1px solid khaki\"> (<a href=\"CodeSystem-epicategory-cs.html\">Category of EPI</a>#F)</span></p><p><b>date</b>: 2022-02-16 13:28:17+0000</p><p><b>author</b>: <a href=\"#Organization_mah-b7afabe350ac415f70e662ba6c703030\">See above (Organization/mah-b7afabe350ac415f70e662ba6c703030)</a></p><p><b>title</b>: TEST PURPOSES ONLY - CALCIO/VITAMINA D3 ROVI 1000 mg/880 UI COMPRIMIDOS EFERVESCENTES</p><h3>Attesters</h3><table class=\"grid\"><tr><td style=\"display: none\">-</td><td><b>Mode</b></td><td><b>Time</b></td></tr><tr><td style=\"display: none\">*</td><td>Official <span style=\"background: LightGoldenRodYellow; margin: 4px; border: 1px solid khaki\"> (<a href=\"http://hl7.org/fhir/R5/codesystem-composition-attestation-mode.html\">Composition Attestation Mode</a>#official)</span></td><td>2022-02-16 13:28:17+0000</td></tr></table></div>"
      },
      "extension" : [{
        "extension" : [{
          "url" : "elementClass",
          "valueString" : "pregnancyCategory"
        },
        {
          "url" : "concept",
          "valueCodeableReference" : {
            "concept" : {
              "coding" : [{
                "system" : "http://snomed.info/sct",
                "code" : "77386006",
                "display" : "Pregnancy"
              }]
            }
          }
        }],
        "url" : "http://hl7.eu/fhir/ig/gravitate-health/StructureDefinition/HtmlElementLink"
      },
      {
        "extension" : [{
          "url" : "elementClass",
          "valueString" : "pregnancyCategory"
        },
        {
          "url" : "concept",
          "valueCodeableReference" : {
            "concept" : {
              "coding" : [{
                "system" : "https://icpc2.icd.com/",
                "code" : "W78",
                "display" : "Pregnancy"
              }]
            }
          }
        }],
        "url" : "http://hl7.eu/fhir/ig/gravitate-health/StructureDefinition/HtmlElementLink"
      },
      {
        "extension" : [{
          "url" : "elementClass",
          "valueString" : "breastfeedingCategory"
        },
        {
          "url" : "concept",
          "valueCodeableReference" : {
            "concept" : {
              "coding" : [{
                "system" : "http://snomed.info/sct",
                "code" : "69840006",
                "display" : "Normal breast feeding (finding)"
              }]
            }
          }
        }],
        "url" : "http://hl7.eu/fhir/ig/gravitate-health/StructureDefinition/HtmlElementLink"
      },
      {
        "extension" : [{
          "url" : "elementClass",
          "valueString" : "liver"
        },
        {
          "url" : "concept",
          "valueCodeableReference" : {
            "concept" : {
              "coding" : [{
                "system" : "https://icpc2.icd.com/",
                "code" : "D97",
                "display" : "Liver disease, other"
              }]
            }
          }
        }],
        "url" : "http://hl7.eu/fhir/ig/gravitate-health/StructureDefinition/HtmlElementLink"
      }],
      "identifier" : [{
        "system" : "https://spor.ema.europa.eu/rmswi/",
        "value" : "cc"
      }],
      "status" : "final",
      "type" : {
        "coding" : [{
          "system" : "https://spor.ema.europa.eu/rmswi/",
          "code" : "100000155538"
        }],
        "text" : "Package Leaflet"
      },
      "category" : [{
        "coding" : [{
          "system" : "http://hl7.eu/fhir/ig/gravitate-health/CodeSystem/epicategory-cs",
          "code" : "F",
          "display" : "Focused"
        }]
      }],
      "subject" : [{
        "reference" : "MedicinalProductDefinition/mpd4bcbbaec04bf6aceb2f71162205967e"
      }],
      "date" : "2022-02-16T13:28:17Z",
      "author" : [{
        "reference" : "Organization/mah-b7afabe350ac415f70e662ba6c703030"
      }],
      "title" : "TEST PURPOSES ONLY - CALCIO/VITAMINA D3 ROVI 1000 mg/880 UI COMPRIMIDOS EFERVESCENTES",
      "attester" : [{
        "mode" : {
          "coding" : [{
            "system" : "http://hl7.org/fhir/composition-attestation-mode",
            "code" : "official"
          }]
        },
        "time" : "2022-02-16T13:28:17Z"
      }],
      "section" : [{
        "title" : "B. Package Leaflet",
        "code" : {
          "coding" : [{
            "system" : "https://spor.ema.europa.eu/rmswi/",
            "code" : "100000155538"
          }],
          "text" : "B. PACKAGE LEAFLET"
        },
        "text" : {
          "status" : "additional",
          "div" : "<div xmlns=\"http://www.w3.org/1999/xhtml\">unavailable</div>"
        },
        "emptyReason" : {
          "coding" : [{
            "system" : "http://terminology.hl7.org/CodeSystem/list-empty-reason",
            "code" : "unavailable"
          }]
        },
        "section" : [{
          "title" : "Package leaflet: Information for the user",
          "code" : {
            "coding" : [{
              "system" : "https://spor.ema.europa.eu/rmswi/",
              "code" : "100000155538"
            }],
            "text" : "Package leaflet: Information for the user"
          },
          "text" : {
            "status" : "additional",
            "div" : "<div xmlns=\"http://www.w3.org/1999/xhtml\"><p><strong>Prospecto: información para el usuario</strong></p><p></p><p><strong>Calcio/Vitamina D</strong><strong>3</strong> <strong>ROVI 1000 mg / 880 UI comprimidos efervescentes</strong></p><p></p><p>Carbonato c álcico/colecalciferol (Vitamina D3)</p><p><strong></strong></p><p><strong>Lea todo el prospecto detenidamente antes de empezar a tomar este medicamento, porque contiene información importante para usted.</strong></p><p>-Conserve este prospecto, ya que puede tener que volver a leerlo.</p><p>-Si tiene alguna duda, consulte a su médico o farmacéutico.</p><p>-Este medicamento se le ha recetado solamente a usted, y no debe d árselo a otras personas aunque tengan los mismos síntomas que usted, ya que puede perjudicarles.</p><p>-Si experimenta efectos adversos, consulte a su médico o farmacéutico, incluso si se trata de efectos adversos que no aparecen en este prospecto. Ver sección 4.</p></div>"
          }
        },
        {
          "title" : "What is in this leaflet",
          "code" : {
            "coding" : [{
              "system" : "https://spor.ema.europa.eu/rmswi/",
              "code" : "100000155538"
            }],
            "text" : "What is in this leaflet"
          },
          "text" : {
            "status" : "additional",
            "div" : "<div xmlns=\"http://www.w3.org/1999/xhtml\"><p><strong>Contenido del prospecto</strong></p><ol><li>Qué es Calcio/Vitamina D3 ROVI y para qué se utiliza</li><li>Qué necesita saber antes de empezar a tomar Calcio/Vitamina D3 ROVI</li><li>Cómo tomar Calcio/Vitamina D3 ROVI</li><li>Posibles efectos adversos</li><li>Conservación de Calcio/Vitamina D3 ROVI</li><li>Contenido del envase e información adicional</li></ol></div>"
          }
        },
        {
          "title" : "1. What CALCIO/VITAMINA D3 ROVI 1000 mg/880 UI COMPRIMIDOS EFERVESCENTES is and what it is used for",
          "code" : {
            "coding" : [{
              "system" : "https://spor.ema.europa.eu/rmswi/",
              "code" : "100000155538"
            }],
            "text" : "1. What CALCIO/VITAMINA D3 ROVI 1000 mg/880 UI COMPRIMIDOS EFERVESCENTES is and what it is used for"
          },
          "text" : {
            "status" : "additional",
            "div" : "<div xmlns=\"http://www.w3.org/1999/xhtml\"><p>Calcio/Vitamina D3 ROVI son comprimidos efervescentes. Se presentan en envases con 30 comprimidos.</p><p>Este medicamento es una asociación de calcio y vitamina D que est á indicada para la corrección de la deficiencia combinada de vitamina D y calcio en pacientes de edad avanzada así como suplemento de vitamina D y calcio como coadyuvante a la terapia específica para el tratamiento de la osteoporosis en pacientes con deficiencia o con alto riesgo de deficiencia combinada de vitamina D y calcio.</p></div>"
          }
        },
        {
          "title" : "2. What you need to know before you take CALCIO/VITAMINA D3 ROVI 1000 mg/880 UI COMPRIMIDOS EFERVESCENTES",
          "code" : {
            "coding" : [{
              "system" : "https://spor.ema.europa.eu/rmswi/",
              "code" : "100000155538"
            }],
            "text" : "2. What you need to know before you take CALCIO/VITAMINA D3 ROVI 1000 mg/880 UI COMPRIMIDOS EFERVESCENTES"
          },
          "text" : {
            "status" : "additional",
            "div" : "<div xmlns=\"http://www.w3.org/1999/xhtml\"><p><strong>No tome Calcio/Vitamina D</strong><strong>3</strong> <strong>ROVI:</strong></p><p></p><div><ul><li>si es alérgico a los principios activos o a alguno de los dem ás componentes de este medicamento (incluidos en la sección 6),</li><li>si usted presenta hipercalcemia (nivel de calcio anormalmente elevado en sangre),</li><li>si usted presenta hipercalciuria (eliminación exagerada de calcio en orina),</li><li>si usted tiene litiasis c álcica (c álculos en riñones), calcificación tisular (depósito de sales de calcio en los tejidos),</li><li>si usted padece una enfermedad crónica del riñón,</li><li>si usted presenta inmovilización prolongada acompañada por hipercalciuria y/o hipercalcemia.</li></ul></div><p></p><p></p><p>Este medicamento contiene aceite de soja. No debe utilizarse en caso de alergia al cacahuete o a la soja.</p><p></p><p><strong>Advertencias y precauciones:</strong></p><p></p><p>Consulte a su médico o farmacéutico antes de empezar a tomar Calcio/Vitamina D3 ROVI:</p><p></p><p>- si tiene insuficiencia renal (incapacidad del riñón para realizar correctamente su función),</p><p>- si tiene c álculos en el riñón,</p><p>- si padece una enfermedad del corazón, sarcoidosis (inflamación a nivel de los ganglios linf áticos, los pulmones, el hígado, los ojos, la piel y otros tejidos), o se encuentra en tratamiento con glucósidos cardíacos (medicamentos utilizados cuando existe una incapacidad del corazón para realizar correctamente su función),</p><p>- si recibe un tratamiento conjunto con otros productos con vitamina D, o est á sometido a un tratamiento prolongado o con dosis elevadas de suplementos de calcio. En este caso es posible que su médico deba efectuar controles clínicos de forma regular. Su médico le indicar á la frecuencia de estos controles.</p><p></p><p><strong>Toma de Calcio/Vitamina D</strong><strong>3</strong> <strong>ROVI con otros medicamentos:</strong></p><p></p><p>Informe a su médico o farmacéutico si est á utilizando, ha utilizado recientemente o pudiera tener que utilizar cualquier otro medicamento. Ciertos medicamentos pueden interferir con Calcio/Vitamina D3 ROVI; en estos casos puede ser necesario cambiar la dosis, interrumpir el tratamiento con alguno de ellos o esperar al menos unas horas entre la administración de ambos.</p><p>Es importante que informe a su médico si est á tomando o ha tomado recientemente alguno de los siguientes medicamentos:</p><div><ul><li>Glucósidos cardíacos (medicamentos para el corazón).</li><li>Tetraciclinas (ciertos antibióticos), esperar un intervalo de al menos 3 horas.</li><li>Diuréticos tiazídicos (medicamentos que aumentan la eliminación de orina).</li><li>Anticonvulsivantes.</li><li>Corticosteroides sistémicos.</li><li>Bifosfonatos y fluoruro sódico, esperar un intervalo de 3 horas.</li><li>Barbitúricos o fenitoína.</li></ul></div><p><strong></strong></p><p><strong>Toma de Calcio / Vitamina D</strong><strong>3</strong> <strong>ROVI con alimentos y, bebidas:</strong></p><p><strong></strong></p><p>Si toma este medicamento juntamente con alimentos y bebidas que contengan ácido ox álico (un compuesto presente en espinacas y ruibarbos) o ácido fítico (presente en el pan integral y cereales) y el fósforo que se encuentra en la leche pueden producirse interacciones, por lo que se aconseja no tomar este medicamento durante las 2 horas siguientes después de haber tomado este tipo de alimentos.</p><p></p><span class=\"pregnancyCategory highlight\"></span><p><strong>Embarazo y lactancia</strong></p><p></p><p>Si est á embarazada o en periodo de lactancia, cree que podría estar embarazada o tiene intención de quedarse embarazada, consulte a su médico o farmacéutico antes de utilizar este medicamento.</p><p></p><p>Debido al contenido en vitamina D (880 UI) de Calcio/Vitamina D3 ROVI, no est á indicado su uso durante el embarazo y la lactancia, ya que la dosis diaria recomendada de vitamina D no debe superar las 600 UI/día.</p><p></p><p><strong>Conducción y uso de máquinas:</strong></p><p></p><p>No se han descrito efectos sobre la conducción o uso de m áquinas.</p><p></p><p><strong>Calcio/Vitamina D</strong><strong>3</strong> <strong>ROVI contiene sacarosa, sodio, lactosa y glucosa.</strong></p><p></p><p>Este medicamento contiene sacarosa. Si su médico le ha indicado que padece una intolerancia a ciertos azúcares, consulte con él antes de tomar este medicamento. Puede producir caries.</p><p></p><p>Este medicamento contiene 96,15 mg de sodio (componente principal de la sal de mesa/para cocinar) en cada comprimido. Esto equivale al 4,8 % de la ingesta diaria m áxima de sodio recomendada para un adulto.</p><p></p><p>Este medicamento contiene lactosa. Si su médico le ha indicado que padece una intolerancia a ciertos azúcares, consulte con él antes de tomar este medicamento.</p><p></p><p>Este medicamento contiene glucosa (en maltodextrina procedente de maíz). Si su médico le ha indicado que padece una intolerancia a ciertos azúcares, consulte con él antes de tomar este medicamento.</p></div>"
          }
        },
        {
          "title" : "3. How to take CALCIO/VITAMINA D3 ROVI 1000 mg/880 UI COMPRIMIDOS EFERVESCENTES",
          "code" : {
            "coding" : [{
              "system" : "https://spor.ema.europa.eu/rmswi/",
              "code" : "100000155538"
            }],
            "text" : "3. How to take CALCIO/VITAMINA D3 ROVI 1000 mg/880 UI COMPRIMIDOS EFERVESCENTES"
          },
          "text" : {
            "status" : "additional",
            "div" : "<div xmlns=\"http://www.w3.org/1999/xhtml\"><p>Siga exactamente las instrucciones de administración de este medicamento indicadas por su médico o farmacéutico. En caso de duda, consulte de nuevo a su médico o farmacéutico.</p><p></p><p><span style=\"text-decoration: underline;\">Dosis</span></p><p><em>Adultos</em></p><p>La dosis recomendada es de 1 comprimido efervescente (1000 mg de calcio y 880 UI de Vitamina D3) al día.</p><p><em></em></p><p><span style=\"text-decoration: underline;\">Forma y vía de administración</span></p><p>Este medicamento se administra por vía oral.</p><p>Disolver el comprimido en un vaso de agua y beber inmediatamente.</p><p></p><p><span style=\"text-decoration: underline;\">Duración del tratamiento</span></p><p>Su médico le indicar á la duración de su tratamiento con Calcio / Vitamina D3 ROVI. No suspenda antes el tratamiento.</p><p></p><p>Siga estas instrucciones a menos que su médico le haya dado otras indicaciones distintas. En estos casos es conveniente solicitar al médico las instrucciones por escrito y asegurarse de haberlas entendido bien.</p><p></p><p>Si estima que la acción de Calcio/Vitamina D3 ROVI es demasiado fuerte o débil, comuníqueselo a su médico o farmacéutico.</p><p></p><p>Recuerde tomar su medicamento.</p><p></p><p><strong>Si toma m ás Calcio/Vitamina D</strong><strong>3</strong> <strong>ROVI del que debe</strong></p><p></p><p>Si toma m ás Calcio/Vitamina D3 ROVI del que debe, o en caso de sobredosis o ingestión accidental, consulte inmediatamente a su médico o farmacéutico o llame al Servicio de Información Toxicológica, teléfono: 91.562.04.20, indicando el medicamento y la cantidad ingerida.</p><p>La sobredosis puede provocar hipervitaminosis D (exceso de vitamina D) e hipercalcemia (nivel de calcio anormalmente elevado en sangre). Los síntomas en caso de sobredosis son: n áuseas, vómitos, anorexia (trastorno de la alimentación), dolor en el abdomen, sequedad de boca o poliuria (aumento del volumen de orina eliminado), o bien, irritabilidad, letargia (cansancio excesivo), estupor (disminución de la respuesta a los estímulos) y coma (pérdida de la conciencia) en casos severos.</p><p></p><p><strong>Si olvidó tomar Calcio/Vitamina D</strong><strong>3</strong> <strong>ROVI</strong></p><p></p><p>No tome una dosis doble para compensar las dosis olvidadas.</p><p></p><p><strong>Si interrumpe el tratamiento con Calcio/Vitamina D</strong><strong>3</strong> <strong>ROVI</strong></p><p><strong></strong></p><p>Si tiene cualquier otra duda sobre el uso de este medicamento, pregunte a su médico o farmacéutico.</p></div>"
          }
        },
        {
          "title" : "4. Possible side effects",
          "code" : {
            "coding" : [{
              "system" : "https://spor.ema.europa.eu/rmswi/",
              "code" : "100000155538"
            }],
            "text" : "4. Possible side effects"
          },
          "text" : {
            "status" : "additional",
            "div" : "<div xmlns=\"http://www.w3.org/1999/xhtml\"><p>Al igual que todos los medicamentos, este medicamento puede producir efectos adversos, aunque no todas las personas los sufran.</p><p></p><p><strong>-Poco frecuente</strong>s (pueden afectar a entre 1 y 10 de cada 1.000 pacientes ):</p><ul><li>niveles altos de calcio en sangre hipercalcemia,</li><li>niveles altos de calcio en orina hipercalciuria.</li></ul><p></p><p><strong>-Raros</strong> (pueden afectar a entre 1 y 10 de cada 10.000 pacientes ):</p><ul><li>estreñimiento,</li><li>flatulencia,</li><li>n áuseas,</li><li>dolor epig ástrico,</li><li>diarrea.</li></ul><p></p><p>-<strong>Muy raros</strong> (pueden afectar a menos de 1 de cada 10.000 pacientes):):</p><ul><li>picor (prurito),</li><li>erupción de la piel (exantema),</li><li>ronchas (urticaria).</li></ul><p></p><p><strong>Comunicación de efectos adversos</strong></p><p>Si experimenta cualquier tipo de efecto adverso, consulte a su médico o farmacéutico, incluso si se trata de posibles efectos adversos que no aparecen en este prospecto. También puede comunicarlos directamente a través Sistema Español de Farmacovigilancia de Medicamentos de Uso Humano: <a href=\"https://www.notificaram.es\">https://www.notificaram.es</a>. Mediante la comunicación de efectos adversos usted puede contribuir a proporcionar m ás información sobre la seguridad de este medicamento.</p></div>"
          }
        },
        {
          "title" : "5. How to store CALCIO/VITAMINA D3 ROVI 1000 mg/880 UI COMPRIMIDOS EFERVESCENTES",
          "code" : {
            "coding" : [{
              "system" : "https://spor.ema.europa.eu/rmswi/",
              "code" : "100000155538"
            }],
            "text" : "5. How to store CALCIO/VITAMINA D3 ROVI 1000 mg/880 UI COMPRIMIDOS EFERVESCENTES"
          },
          "text" : {
            "status" : "additional",
            "div" : "<div xmlns=\"http://www.w3.org/1999/xhtml\"><p>Mantener este medicamento fuera de la vista y del alcance de los niños.</p><p></p><p>Conservar en el envase original para protegerlo de la humedad.</p><p></p><p>No utilice este medicamento después de la fecha de caducidad que aparece en el envase después de CAD. La fecha de caducidad es el último día del mes que se indica.</p><p></p><p>Los medicamentos no se deben tirar por los desagües ni a la basura. Deposite los envases y los medicamentos que no necesita en el Punto SIGRE de la farmacia. En caso de duda pregunte a su farmacéutico cómo deshacerse de los envases y de los medicamentos que no necesita. De esta forma, ayudar á a proteger el medio ambiente</p></div>"
          }
        },
        {
          "title" : "6. Contents of the pack and other information",
          "code" : {
            "coding" : [{
              "system" : "https://spor.ema.europa.eu/rmswi/",
              "code" : "100000155538"
            }],
            "text" : "6. Contents of the pack and other information"
          },
          "text" : {
            "status" : "additional",
            "div" : "<div xmlns=\"http://www.w3.org/1999/xhtml\"><p><strong>Composición de Calcio/Vitamina D</strong><strong>3</strong> <strong>ROVI</strong></p><p><strong></strong></p><p>-Los principios activos son: carbonato de calcio y concentrado de colecalciferol (en forma de polvo). Cada comprimido contiene 2500 mg de carbonato de calcio (equivalente a 1.000 mg de calcio) y 22 microgramos de concentrado de colecalciferol en forma de polvo (equivalente a 880 UI de colecalciferol = vitamina D3).</p><p></p><p>-Los dem ás componentes (excipientes) son: ácido cítrico anhidro, bicarbonato de sodio, lactosa monohidratada, povidona, sacarina sódica, ciclamato de sodio, macrogol 6000, aroma de naranja (contiene maltodextrina procedente de maíz), emulsión de simeticona, ?-tocoferol, aceite de soja hidrogenado, gelatina, sacarosa y almidón de maíz sin gluten.</p><p></p><p><strong>Aspecto del producto y contenido del envase</strong></p><p></p><p>Comprimidos efervescentes cilíndricos, de color blanco o blanquecino.</p><p>Se presentan en tubos de polipropileno, que contienen 15 comprimidos efervescentes cada uno. Cada envase contiene dos tubos (30 comprimidos efervescentes).</p><p></p><p><strong>Titular de la autorización de comercialización</strong></p><p><strong></strong></p><p>Laboratorios Farmacéuticos ROVI, S.A.</p><p>C/ Juli án Camarillo, 35</p><p>28037 - Madrid</p><p>España</p><p><strong><em></em></strong></p><p><strong>Responsable de la fabricación:</strong></p><p>Laboratorios Losan Pharma GMBH</p><p>Otto-Hahn-Strasse 13</p><p>79395 - Neuenburg</p><p>Alemania</p><p><strong><em></em></strong></p><p><strong>Fecha de la última revisión de este prospecto:</strong> julio 2019</p><p>La información detallada de este medicamento est á disponible en la p ágina web de la Agencia Española de Medicamentos y Productos Sanitarios (AEMPS) (<a href=\"https://www.aemps.gob.es/\"><span style=\"text-decoration: underline;\">https://www.aemps.gob.es/</span></a>)</p></div>"
          }
        }]
      }]
    }
  },
  {
    "fullUrl" : "http://hl7.eu/fhir/ig/gravitate-health/Ingredient/ingredient-for-calciovitaminad-calciumcarbonate",
    "resource" : {
      "resourceType" : "Ingredient",
      "id" : "ingredient-for-calciovitaminad-calciumcarbonate",
      "meta" : {
        "profile" : ["http://hl7.org/fhir/uv/emedicinal-product-info/StructureDefinition/Ingredient-uv-epi"]
      },
      "text" : {
        "status" : "generated",
        "div" : "<div xmlns=\"http://www.w3.org/1999/xhtml\"><p><b>Generated Narrative: Ingredient</b><a name=\"ingredient-for-calciovitaminad-calciumcarbonate\"> </a></p><div style=\"display: inline-block; background-color: #d9e0e7; padding: 6px; margin: 4px; border: 1px solid #8da1b4; border-radius: 5px; line-height: 60%\"><p style=\"margin-bottom: 0px\">Resource Ingredient &quot;ingredient-for-calciovitaminad-calciumcarbonate&quot; </p><p style=\"margin-bottom: 0px\">Profile: <a href=\"https://build.fhir.org/ig/HL7/emedicinal-product-info//StructureDefinition-Ingredient-uv-epi.html\">Ingredient (ePI)</a></p></div><p><b>identifier</b>: id:\u00a0H0G9379FGK\u00a0(use:\u00a0OFFICIAL)</p><p><b>status</b>: active</p><p><b>for</b>: </p><ul><li><a href=\"#ManufacturedItemDefinition_mid-925dad38f0afbba36223a82b3a766438\">See above (ManufacturedItemDefinition/mid-925dad38f0afbba36223a82b3a766438)</a></li><li><a href=\"#MedicinalProductDefinition_mpd4bcbbaec04bf6aceb2f71162205967e\">See above (MedicinalProductDefinition/mpd4bcbbaec04bf6aceb2f71162205967e)</a></li><li><a href=\"#AdministrableProductDefinition_ap-925dad38f0afbba36223a82b3a766438\">See above (AdministrableProductDefinition/ap-925dad38f0afbba36223a82b3a766438)</a></li></ul><p><b>role</b>: active <span style=\"background: LightGoldenRodYellow; margin: 4px; border: 1px solid khaki\"> (rmswi#72072)</span></p><blockquote><p><b>substance</b></p><h3>Codes</h3><table class=\"grid\"><tr><td style=\"display: none\">-</td><td><b>Concept</b></td></tr><tr><td style=\"display: none\">*</td><td>Calcium Carbonate <span style=\"background: LightGoldenRodYellow; margin: 4px; border: 1px solid khaki\"> (beta#H0G9379FGK)</span></td></tr></table><h3>Strengths</h3><table class=\"grid\"><tr><td style=\"display: none\">-</td><td><b>Presentation[x]</b></td><td><b>Basis</b></td></tr><tr><td style=\"display: none\">*</td><td>2500 mg<span style=\"background: LightGoldenRodYellow\"> (Details: UCUM code mg = 'mg')</span></td><td>active ingredient - basis of strength <span style=\"background: LightGoldenRodYellow; margin: 4px; border: 1px solid khaki\"> (<a href=\"http://terminology.hl7.org/5.3.0/CodeSystem-v3-RoleClass.html\">RoleClass</a>#ACTIB)</span></td></tr></table></blockquote></div>"
      },
      "identifier" : {
        "use" : "official",
        "system" : "https://gsrs.ncats.nih.gov/ginas/app/beta",
        "value" : "H0G9379FGK"
      },
      "status" : "active",
      "for" : [{
        "reference" : "ManufacturedItemDefinition/mid-925dad38f0afbba36223a82b3a766438"
      },
      {
        "reference" : "MedicinalProductDefinition/mpd4bcbbaec04bf6aceb2f71162205967e"
      },
      {
        "reference" : "AdministrableProductDefinition/ap-925dad38f0afbba36223a82b3a766438"
      }],
      "role" : {
        "coding" : [{
          "system" : "https://spor.ema.europa.eu/rmswi",
          "code" : "72072",
          "display" : "active"
        }]
      },
      "substance" : {
        "code" : {
          "concept" : {
            "coding" : [{
              "system" : "https://gsrs.ncats.nih.gov/ginas/app/beta",
              "code" : "H0G9379FGK",
              "display" : "Calcium Carbonate"
            }]
          }
        },
        "strength" : [{
          "presentationQuantity" : {
            "value" : 2500,
            "system" : "http://unitsofmeasure.org",
            "code" : "mg"
          },
          "basis" : {
            "coding" : [{
              "system" : "http://terminology.hl7.org/CodeSystem/v3-RoleClass",
              "code" : "ACTIB",
              "display" : "active ingredient - basis of strength"
            }]
          }
        }]
      }
    }
  },
  {
    "fullUrl" : "http://hl7.eu/fhir/ig/gravitate-health/Ingredient/ingredient-for-calciovitaminad-cholecalciferol",
    "resource" : {
      "resourceType" : "Ingredient",
      "id" : "ingredient-for-calciovitaminad-cholecalciferol",
      "meta" : {
        "profile" : ["http://hl7.org/fhir/uv/emedicinal-product-info/StructureDefinition/Ingredient-uv-epi"]
      },
      "text" : {
        "status" : "generated",
        "div" : "<div xmlns=\"http://www.w3.org/1999/xhtml\"><p><b>Generated Narrative: Ingredient</b><a name=\"ingredient-for-calciovitaminad-cholecalciferol\"> </a></p><div style=\"display: inline-block; background-color: #d9e0e7; padding: 6px; margin: 4px; border: 1px solid #8da1b4; border-radius: 5px; line-height: 60%\"><p style=\"margin-bottom: 0px\">Resource Ingredient &quot;ingredient-for-calciovitaminad-cholecalciferol&quot; </p><p style=\"margin-bottom: 0px\">Profile: <a href=\"https://build.fhir.org/ig/HL7/emedicinal-product-info//StructureDefinition-Ingredient-uv-epi.html\">Ingredient (ePI)</a></p></div><p><b>identifier</b>: id:\u00a01C6V77QF41\u00a0(use:\u00a0OFFICIAL)</p><p><b>status</b>: active</p><p><b>for</b>: </p><ul><li><a href=\"#ManufacturedItemDefinition_mid-925dad38f0afbba36223a82b3a766438\">See above (ManufacturedItemDefinition/mid-925dad38f0afbba36223a82b3a766438)</a></li><li><a href=\"#MedicinalProductDefinition_mpd4bcbbaec04bf6aceb2f71162205967e\">See above (MedicinalProductDefinition/mpd4bcbbaec04bf6aceb2f71162205967e)</a></li><li><a href=\"#AdministrableProductDefinition_ap-925dad38f0afbba36223a82b3a766438\">See above (AdministrableProductDefinition/ap-925dad38f0afbba36223a82b3a766438)</a></li></ul><p><b>role</b>: active <span style=\"background: LightGoldenRodYellow; margin: 4px; border: 1px solid khaki\"> (rmswi#72072)</span></p><blockquote><p><b>substance</b></p><h3>Codes</h3><table class=\"grid\"><tr><td style=\"display: none\">-</td><td><b>Concept</b></td></tr><tr><td style=\"display: none\">*</td><td>cholecalciferol <span style=\"background: LightGoldenRodYellow; margin: 4px; border: 1px solid khaki\"> (beta#1C6V77QF41)</span></td></tr></table><h3>Strengths</h3><table class=\"grid\"><tr><td style=\"display: none\">-</td><td><b>Presentation[x]</b></td><td><b>Basis</b></td></tr><tr><td style=\"display: none\">*</td><td>22 ug<span style=\"background: LightGoldenRodYellow\"> (Details: UCUM code ug = 'ug')</span></td><td>active ingredient - basis of strength <span style=\"background: LightGoldenRodYellow; margin: 4px; border: 1px solid khaki\"> (<a href=\"http://terminology.hl7.org/5.3.0/CodeSystem-v3-RoleClass.html\">RoleClass</a>#ACTIB)</span></td></tr></table></blockquote></div>"
      },
      "identifier" : {
        "use" : "official",
        "system" : "https://gsrs.ncats.nih.gov/ginas/app/beta",
        "value" : "1C6V77QF41"
      },
      "status" : "active",
      "for" : [{
        "reference" : "ManufacturedItemDefinition/mid-925dad38f0afbba36223a82b3a766438"
      },
      {
        "reference" : "MedicinalProductDefinition/mpd4bcbbaec04bf6aceb2f71162205967e"
      },
      {
        "reference" : "AdministrableProductDefinition/ap-925dad38f0afbba36223a82b3a766438"
      }],
      "role" : {
        "coding" : [{
          "system" : "https://spor.ema.europa.eu/rmswi",
          "code" : "72072",
          "display" : "active"
        }]
      },
      "substance" : {
        "code" : {
          "concept" : {
            "coding" : [{
              "system" : "https://gsrs.ncats.nih.gov/ginas/app/beta",
              "code" : "1C6V77QF41",
              "display" : "cholecalciferol"
            }]
          }
        },
        "strength" : [{
          "presentationQuantity" : {
            "value" : 22,
            "system" : "http://unitsofmeasure.org",
            "code" : "ug"
          },
          "basis" : {
            "coding" : [{
              "system" : "http://terminology.hl7.org/CodeSystem/v3-RoleClass",
              "code" : "ACTIB",
              "display" : "active ingredient - basis of strength"
            }]
          }
        }]
      }
    }
  },
  {
    "fullUrl" : "http://hl7.eu/fhir/ig/gravitate-health/Ingredient/ingredient-for-calciovitaminad-sodium",
    "resource" : {
      "resourceType" : "Ingredient",
      "id" : "ingredient-for-calciovitaminad-sodium",
      "meta" : {
        "profile" : ["http://hl7.org/fhir/uv/emedicinal-product-info/StructureDefinition/Ingredient-uv-epi"]
      },
      "text" : {
        "status" : "generated",
        "div" : "<div xmlns=\"http://www.w3.org/1999/xhtml\"><p><b>Generated Narrative: Ingredient</b><a name=\"ingredient-for-calciovitaminad-sodium\"> </a></p><div style=\"display: inline-block; background-color: #d9e0e7; padding: 6px; margin: 4px; border: 1px solid #8da1b4; border-radius: 5px; line-height: 60%\"><p style=\"margin-bottom: 0px\">Resource Ingredient &quot;ingredient-for-calciovitaminad-sodium&quot; </p><p style=\"margin-bottom: 0px\">Profile: <a href=\"https://build.fhir.org/ig/HL7/emedicinal-product-info//StructureDefinition-Ingredient-uv-epi.html\">Ingredient (ePI)</a></p></div><p><b>identifier</b>: id:\u00a09NEZ333N27\u00a0(use:\u00a0OFFICIAL)</p><p><b>status</b>: active</p><p><b>for</b>: </p><ul><li><a href=\"#ManufacturedItemDefinition_mid-925dad38f0afbba36223a82b3a766438\">See above (ManufacturedItemDefinition/mid-925dad38f0afbba36223a82b3a766438)</a></li><li><a href=\"#MedicinalProductDefinition_mpd4bcbbaec04bf6aceb2f71162205967e\">See above (MedicinalProductDefinition/mpd4bcbbaec04bf6aceb2f71162205967e)</a></li><li><a href=\"#AdministrableProductDefinition_ap-925dad38f0afbba36223a82b3a766438\">See above (AdministrableProductDefinition/ap-925dad38f0afbba36223a82b3a766438)</a></li></ul><p><b>role</b>: active <span style=\"background: LightGoldenRodYellow; margin: 4px; border: 1px solid khaki\"> (rmswi#72072)</span></p><blockquote><p><b>substance</b></p><h3>Codes</h3><table class=\"grid\"><tr><td style=\"display: none\">-</td><td><b>Concept</b></td></tr><tr><td style=\"display: none\">*</td><td>Sodium <span style=\"background: LightGoldenRodYellow; margin: 4px; border: 1px solid khaki\"> (beta#9NEZ333N27)</span></td></tr></table><h3>Strengths</h3><table class=\"grid\"><tr><td style=\"display: none\">-</td><td><b>Presentation[x]</b></td><td><b>Basis</b></td></tr><tr><td style=\"display: none\">*</td><td>96 mg<span style=\"background: LightGoldenRodYellow\"> (Details: UCUM code mg = 'mg')</span></td><td>active ingredient - basis of strength <span style=\"background: LightGoldenRodYellow; margin: 4px; border: 1px solid khaki\"> (<a href=\"http://terminology.hl7.org/5.3.0/CodeSystem-v3-RoleClass.html\">RoleClass</a>#ACTIB)</span></td></tr></table></blockquote></div>"
      },
      "identifier" : {
        "use" : "official",
        "system" : "https://gsrs.ncats.nih.gov/ginas/app/beta",
        "value" : "9NEZ333N27"
      },
      "status" : "active",
      "for" : [{
        "reference" : "ManufacturedItemDefinition/mid-925dad38f0afbba36223a82b3a766438"
      },
      {
        "reference" : "MedicinalProductDefinition/mpd4bcbbaec04bf6aceb2f71162205967e"
      },
      {
        "reference" : "AdministrableProductDefinition/ap-925dad38f0afbba36223a82b3a766438"
      }],
      "role" : {
        "coding" : [{
          "system" : "https://spor.ema.europa.eu/rmswi",
          "code" : "72072",
          "display" : "active"
        }]
      },
      "substance" : {
        "code" : {
          "concept" : {
            "coding" : [{
              "system" : "https://gsrs.ncats.nih.gov/ginas/app/beta",
              "code" : "9NEZ333N27",
              "display" : "Sodium"
            }]
          }
        },
        "strength" : [{
          "presentationQuantity" : {
            "value" : 96,
            "system" : "http://unitsofmeasure.org",
            "code" : "mg"
          },
          "basis" : {
            "coding" : [{
              "system" : "http://terminology.hl7.org/CodeSystem/v3-RoleClass",
              "code" : "ACTIB",
              "display" : "active ingredient - basis of strength"
            }]
          }
        }]
      }
    }
  },
  {
    "fullUrl" : "http://hl7.eu/fhir/ig/gravitate-health/Ingredient/ingredient-for-calciovitaminad-lactosemonohydrate",
    "resource" : {
      "resourceType" : "Ingredient",
      "id" : "ingredient-for-calciovitaminad-lactosemonohydrate",
      "meta" : {
        "profile" : ["http://hl7.org/fhir/uv/emedicinal-product-info/StructureDefinition/Ingredient-uv-epi"]
      },
      "text" : {
        "status" : "generated",
        "div" : "<div xmlns=\"http://www.w3.org/1999/xhtml\"><p><b>Generated Narrative: Ingredient</b><a name=\"ingredient-for-calciovitaminad-lactosemonohydrate\"> </a></p><div style=\"display: inline-block; background-color: #d9e0e7; padding: 6px; margin: 4px; border: 1px solid #8da1b4; border-radius: 5px; line-height: 60%\"><p style=\"margin-bottom: 0px\">Resource Ingredient &quot;ingredient-for-calciovitaminad-lactosemonohydrate&quot; </p><p style=\"margin-bottom: 0px\">Profile: <a href=\"https://build.fhir.org/ig/HL7/emedicinal-product-info//StructureDefinition-Ingredient-uv-epi.html\">Ingredient (ePI)</a></p></div><p><b>identifier</b>: id:\u00a0EWQ57Q8I5X\u00a0(use:\u00a0OFFICIAL)</p><p><b>status</b>: active</p><p><b>for</b>: </p><ul><li><a href=\"#ManufacturedItemDefinition_mid-925dad38f0afbba36223a82b3a766438\">See above (ManufacturedItemDefinition/mid-925dad38f0afbba36223a82b3a766438)</a></li><li><a href=\"#MedicinalProductDefinition_mpd4bcbbaec04bf6aceb2f71162205967e\">See above (MedicinalProductDefinition/mpd4bcbbaec04bf6aceb2f71162205967e)</a></li><li><a href=\"#AdministrableProductDefinition_ap-925dad38f0afbba36223a82b3a766438\">See above (AdministrableProductDefinition/ap-925dad38f0afbba36223a82b3a766438)</a></li></ul><p><b>role</b>: active <span style=\"background: LightGoldenRodYellow; margin: 4px; border: 1px solid khaki\"> (rmswi#72072)</span></p><blockquote><p><b>substance</b></p><h3>Codes</h3><table class=\"grid\"><tr><td style=\"display: none\">-</td><td><b>Concept</b></td></tr><tr><td style=\"display: none\">*</td><td>lactose monohydrate <span style=\"background: LightGoldenRodYellow; margin: 4px; border: 1px solid khaki\"> (beta#EWQ57Q8I5X)</span></td></tr></table><h3>Strengths</h3><table class=\"grid\"><tr><td style=\"display: none\">-</td><td><b>Presentation[x]</b></td><td><b>Basis</b></td></tr><tr><td style=\"display: none\">*</td><td>396 mg<span style=\"background: LightGoldenRodYellow\"> (Details: UCUM code mg = 'mg')</span></td><td>active ingredient - basis of strength <span style=\"background: LightGoldenRodYellow; margin: 4px; border: 1px solid khaki\"> (<a href=\"http://terminology.hl7.org/5.3.0/CodeSystem-v3-RoleClass.html\">RoleClass</a>#ACTIB)</span></td></tr></table></blockquote></div>"
      },
      "identifier" : {
        "use" : "official",
        "system" : "https://gsrs.ncats.nih.gov/ginas/app/beta",
        "value" : "EWQ57Q8I5X"
      },
      "status" : "active",
      "for" : [{
        "reference" : "ManufacturedItemDefinition/mid-925dad38f0afbba36223a82b3a766438"
      },
      {
        "reference" : "MedicinalProductDefinition/mpd4bcbbaec04bf6aceb2f71162205967e"
      },
      {
        "reference" : "AdministrableProductDefinition/ap-925dad38f0afbba36223a82b3a766438"
      }],
      "role" : {
        "coding" : [{
          "system" : "https://spor.ema.europa.eu/rmswi",
          "code" : "72072",
          "display" : "active"
        }]
      },
      "substance" : {
        "code" : {
          "concept" : {
            "coding" : [{
              "system" : "https://gsrs.ncats.nih.gov/ginas/app/beta",
              "code" : "EWQ57Q8I5X",
              "display" : "lactose monohydrate"
            }]
          }
        },
        "strength" : [{
          "presentationQuantity" : {
            "value" : 396,
            "system" : "http://unitsofmeasure.org",
            "code" : "mg"
          },
          "basis" : {
            "coding" : [{
              "system" : "http://terminology.hl7.org/CodeSystem/v3-RoleClass",
              "code" : "ACTIB",
              "display" : "active ingredient - basis of strength"
            }]
          }
        }]
      }
    }
  },
  {
    "fullUrl" : "http://hl7.eu/fhir/ig/gravitate-health/Ingredient/ingredient-for-calciovitaminad-sucrose",
    "resource" : {
      "resourceType" : "Ingredient",
      "id" : "ingredient-for-calciovitaminad-sucrose",
      "meta" : {
        "profile" : ["http://hl7.org/fhir/uv/emedicinal-product-info/StructureDefinition/Ingredient-uv-epi"]
      },
      "text" : {
        "status" : "generated",
        "div" : "<div xmlns=\"http://www.w3.org/1999/xhtml\"><p><b>Generated Narrative: Ingredient</b><a name=\"ingredient-for-calciovitaminad-sucrose\"> </a></p><div style=\"display: inline-block; background-color: #d9e0e7; padding: 6px; margin: 4px; border: 1px solid #8da1b4; border-radius: 5px; line-height: 60%\"><p style=\"margin-bottom: 0px\">Resource Ingredient &quot;ingredient-for-calciovitaminad-sucrose&quot; </p><p style=\"margin-bottom: 0px\">Profile: <a href=\"https://build.fhir.org/ig/HL7/emedicinal-product-info//StructureDefinition-Ingredient-uv-epi.html\">Ingredient (ePI)</a></p></div><p><b>identifier</b>: id:\u00a0C151H8M554\u00a0(use:\u00a0OFFICIAL)</p><p><b>status</b>: active</p><p><b>for</b>: </p><ul><li><a href=\"#ManufacturedItemDefinition_mid-925dad38f0afbba36223a82b3a766438\">See above (ManufacturedItemDefinition/mid-925dad38f0afbba36223a82b3a766438)</a></li><li><a href=\"#MedicinalProductDefinition_mpd4bcbbaec04bf6aceb2f71162205967e\">See above (MedicinalProductDefinition/mpd4bcbbaec04bf6aceb2f71162205967e)</a></li><li><a href=\"#AdministrableProductDefinition_ap-925dad38f0afbba36223a82b3a766438\">See above (AdministrableProductDefinition/ap-925dad38f0afbba36223a82b3a766438)</a></li></ul><p><b>role</b>: active <span style=\"background: LightGoldenRodYellow; margin: 4px; border: 1px solid khaki\"> (rmswi#72072)</span></p><blockquote><p><b>substance</b></p><h3>Codes</h3><table class=\"grid\"><tr><td style=\"display: none\">-</td><td><b>Concept</b></td></tr><tr><td style=\"display: none\">*</td><td>sucrose <span style=\"background: LightGoldenRodYellow; margin: 4px; border: 1px solid khaki\"> (beta#C151H8M554)</span></td></tr></table><h3>Strengths</h3><table class=\"grid\"><tr><td style=\"display: none\">-</td><td><b>Presentation[x]</b></td><td><b>Basis</b></td></tr><tr><td style=\"display: none\">*</td><td>3 mg<span style=\"background: LightGoldenRodYellow\"> (Details: UCUM code mg = 'mg')</span></td><td>active ingredient - basis of strength <span style=\"background: LightGoldenRodYellow; margin: 4px; border: 1px solid khaki\"> (<a href=\"http://terminology.hl7.org/5.3.0/CodeSystem-v3-RoleClass.html\">RoleClass</a>#ACTIB)</span></td></tr></table></blockquote></div>"
      },
      "identifier" : {
        "use" : "official",
        "system" : "https://gsrs.ncats.nih.gov/ginas/app/beta",
        "value" : "C151H8M554"
      },
      "status" : "active",
      "for" : [{
        "reference" : "ManufacturedItemDefinition/mid-925dad38f0afbba36223a82b3a766438"
      },
      {
        "reference" : "MedicinalProductDefinition/mpd4bcbbaec04bf6aceb2f71162205967e"
      },
      {
        "reference" : "AdministrableProductDefinition/ap-925dad38f0afbba36223a82b3a766438"
      }],
      "role" : {
        "coding" : [{
          "system" : "https://spor.ema.europa.eu/rmswi",
          "code" : "72072",
          "display" : "active"
        }]
      },
      "substance" : {
        "code" : {
          "concept" : {
            "coding" : [{
              "system" : "https://gsrs.ncats.nih.gov/ginas/app/beta",
              "code" : "C151H8M554",
              "display" : "sucrose"
            }]
          }
        },
        "strength" : [{
          "presentationQuantity" : {
            "value" : 3,
            "system" : "http://unitsofmeasure.org",
            "code" : "mg"
          },
          "basis" : {
            "coding" : [{
              "system" : "http://terminology.hl7.org/CodeSystem/v3-RoleClass",
              "code" : "ACTIB",
              "display" : "active ingredient - basis of strength"
            }]
          }
        }]
      }
    }
  },
  {
    "fullUrl" : "http://hl7.eu/fhir/ig/gravitate-health/Ingredient/ingredient-for-calciovitaminad-hydrogenatedsoybeanoil",
    "resource" : {
      "resourceType" : "Ingredient",
      "id" : "ingredient-for-calciovitaminad-hydrogenatedsoybeanoil",
      "meta" : {
        "profile" : ["http://hl7.org/fhir/uv/emedicinal-product-info/StructureDefinition/Ingredient-uv-epi"]
      },
      "text" : {
        "status" : "generated",
        "div" : "<div xmlns=\"http://www.w3.org/1999/xhtml\"><p><b>Generated Narrative: Ingredient</b><a name=\"ingredient-for-calciovitaminad-hydrogenatedsoybeanoil\"> </a></p><div style=\"display: inline-block; background-color: #d9e0e7; padding: 6px; margin: 4px; border: 1px solid #8da1b4; border-radius: 5px; line-height: 60%\"><p style=\"margin-bottom: 0px\">Resource Ingredient &quot;ingredient-for-calciovitaminad-hydrogenatedsoybeanoil&quot; </p><p style=\"margin-bottom: 0px\">Profile: <a href=\"https://build.fhir.org/ig/HL7/emedicinal-product-info//StructureDefinition-Ingredient-uv-epi.html\">Ingredient (ePI)</a></p></div><p><b>identifier</b>: id:\u00a0A2M91M918C\u00a0(use:\u00a0OFFICIAL)</p><p><b>status</b>: active</p><p><b>for</b>: </p><ul><li><a href=\"#ManufacturedItemDefinition_mid-925dad38f0afbba36223a82b3a766438\">See above (ManufacturedItemDefinition/mid-925dad38f0afbba36223a82b3a766438)</a></li><li><a href=\"#MedicinalProductDefinition_mpd4bcbbaec04bf6aceb2f71162205967e\">See above (MedicinalProductDefinition/mpd4bcbbaec04bf6aceb2f71162205967e)</a></li><li><a href=\"#AdministrableProductDefinition_ap-925dad38f0afbba36223a82b3a766438\">See above (AdministrableProductDefinition/ap-925dad38f0afbba36223a82b3a766438)</a></li></ul><p><b>role</b>: active <span style=\"background: LightGoldenRodYellow; margin: 4px; border: 1px solid khaki\"> (rmswi#72072)</span></p><blockquote><p><b>substance</b></p><h3>Codes</h3><table class=\"grid\"><tr><td style=\"display: none\">-</td><td><b>Concept</b></td></tr><tr><td style=\"display: none\">*</td><td>hydrogenated soybean oil <span style=\"background: LightGoldenRodYellow; margin: 4px; border: 1px solid khaki\"> (beta#A2M91M918C)</span></td></tr></table><h3>Strengths</h3><table class=\"grid\"><tr><td style=\"display: none\">-</td><td><b>Presentation[x]</b></td><td><b>Basis</b></td></tr><tr><td style=\"display: none\">*</td><td>0 mg<span style=\"background: LightGoldenRodYellow\"> (Details: UCUM code mg = 'mg')</span></td><td>active ingredient - basis of strength <span style=\"background: LightGoldenRodYellow; margin: 4px; border: 1px solid khaki\"> (<a href=\"http://terminology.hl7.org/5.3.0/CodeSystem-v3-RoleClass.html\">RoleClass</a>#ACTIB)</span></td></tr></table></blockquote></div>"
      },
      "identifier" : {
        "use" : "official",
        "system" : "https://gsrs.ncats.nih.gov/ginas/app/beta",
        "value" : "A2M91M918C"
      },
      "status" : "active",
      "for" : [{
        "reference" : "ManufacturedItemDefinition/mid-925dad38f0afbba36223a82b3a766438"
      },
      {
        "reference" : "MedicinalProductDefinition/mpd4bcbbaec04bf6aceb2f71162205967e"
      },
      {
        "reference" : "AdministrableProductDefinition/ap-925dad38f0afbba36223a82b3a766438"
      }],
      "role" : {
        "coding" : [{
          "system" : "https://spor.ema.europa.eu/rmswi",
          "code" : "72072",
          "display" : "active"
        }]
      },
      "substance" : {
        "code" : {
          "concept" : {
            "coding" : [{
              "system" : "https://gsrs.ncats.nih.gov/ginas/app/beta",
              "code" : "A2M91M918C",
              "display" : "hydrogenated soybean oil"
            }]
          }
        },
        "strength" : [{
          "presentationQuantity" : {
            "value" : 0,
            "system" : "http://unitsofmeasure.org",
            "code" : "mg"
          },
          "basis" : {
            "coding" : [{
              "system" : "http://terminology.hl7.org/CodeSystem/v3-RoleClass",
              "code" : "ACTIB",
              "display" : "active ingredient - basis of strength"
            }]
          }
        }]
      }
    }
  },
  {
    "fullUrl" : "http://hl7.eu/fhir/ig/gravitate-health/Ingredient/ingredient-for-calciovitaminad-anhydrouscitricacid",
    "resource" : {
      "resourceType" : "Ingredient",
      "id" : "ingredient-for-calciovitaminad-anhydrouscitricacid",
      "meta" : {
        "profile" : ["http://hl7.org/fhir/uv/emedicinal-product-info/StructureDefinition/Ingredient-uv-epi"]
      },
      "text" : {
        "status" : "generated",
        "div" : "<div xmlns=\"http://www.w3.org/1999/xhtml\"><p><b>Generated Narrative: Ingredient</b><a name=\"ingredient-for-calciovitaminad-anhydrouscitricacid\"> </a></p><div style=\"display: inline-block; background-color: #d9e0e7; padding: 6px; margin: 4px; border: 1px solid #8da1b4; border-radius: 5px; line-height: 60%\"><p style=\"margin-bottom: 0px\">Resource Ingredient &quot;ingredient-for-calciovitaminad-anhydrouscitricacid&quot; </p><p style=\"margin-bottom: 0px\">Profile: <a href=\"https://build.fhir.org/ig/HL7/emedicinal-product-info//StructureDefinition-Ingredient-uv-epi.html\">Ingredient (ePI)</a></p></div><p><b>identifier</b>: id:\u00a0XF417D3PSL\u00a0(use:\u00a0OFFICIAL)</p><p><b>status</b>: active</p><p><b>for</b>: </p><ul><li><a href=\"#ManufacturedItemDefinition_mid-925dad38f0afbba36223a82b3a766438\">See above (ManufacturedItemDefinition/mid-925dad38f0afbba36223a82b3a766438)</a></li><li><a href=\"#MedicinalProductDefinition_mpd4bcbbaec04bf6aceb2f71162205967e\">See above (MedicinalProductDefinition/mpd4bcbbaec04bf6aceb2f71162205967e)</a></li><li><a href=\"#AdministrableProductDefinition_ap-925dad38f0afbba36223a82b3a766438\">See above (AdministrableProductDefinition/ap-925dad38f0afbba36223a82b3a766438)</a></li></ul><p><b>role</b>: excipient <span style=\"background: LightGoldenRodYellow; margin: 4px; border: 1px solid khaki\"> (rmswi#100000072082)</span></p><blockquote><p><b>substance</b></p><h3>Codes</h3><table class=\"grid\"><tr><td style=\"display: none\">-</td><td><b>Concept</b></td></tr><tr><td style=\"display: none\">*</td><td>Anhydrous citric acid <span style=\"background: LightGoldenRodYellow; margin: 4px; border: 1px solid khaki\"> (beta#XF417D3PSL)</span></td></tr></table></blockquote></div>"
      },
      "identifier" : {
        "use" : "official",
        "system" : "https://gsrs.ncats.nih.gov/ginas/app/beta",
        "value" : "XF417D3PSL"
      },
      "status" : "active",
      "for" : [{
        "reference" : "ManufacturedItemDefinition/mid-925dad38f0afbba36223a82b3a766438"
      },
      {
        "reference" : "MedicinalProductDefinition/mpd4bcbbaec04bf6aceb2f71162205967e"
      },
      {
        "reference" : "AdministrableProductDefinition/ap-925dad38f0afbba36223a82b3a766438"
      }],
      "role" : {
        "coding" : [{
          "system" : "https://spor.ema.europa.eu/rmswi",
          "code" : "100000072082",
          "display" : "excipient"
        }]
      },
      "substance" : {
        "code" : {
          "concept" : {
            "coding" : [{
              "system" : "https://gsrs.ncats.nih.gov/ginas/app/beta",
              "code" : "XF417D3PSL",
              "display" : "Anhydrous citric acid"
            }]
          }
        }
      }
    }
  },
  {
    "fullUrl" : "http://hl7.eu/fhir/ig/gravitate-health/Ingredient/ingredient-for-calciovitaminad-sodiumbicarbonate",
    "resource" : {
      "resourceType" : "Ingredient",
      "id" : "ingredient-for-calciovitaminad-sodiumbicarbonate",
      "meta" : {
        "profile" : ["http://hl7.org/fhir/uv/emedicinal-product-info/StructureDefinition/Ingredient-uv-epi"]
      },
      "text" : {
        "status" : "generated",
        "div" : "<div xmlns=\"http://www.w3.org/1999/xhtml\"><p><b>Generated Narrative: Ingredient</b><a name=\"ingredient-for-calciovitaminad-sodiumbicarbonate\"> </a></p><div style=\"display: inline-block; background-color: #d9e0e7; padding: 6px; margin: 4px; border: 1px solid #8da1b4; border-radius: 5px; line-height: 60%\"><p style=\"margin-bottom: 0px\">Resource Ingredient &quot;ingredient-for-calciovitaminad-sodiumbicarbonate&quot; </p><p style=\"margin-bottom: 0px\">Profile: <a href=\"https://build.fhir.org/ig/HL7/emedicinal-product-info//StructureDefinition-Ingredient-uv-epi.html\">Ingredient (ePI)</a></p></div><p><b>identifier</b>: id:\u00a08MDF5V39QO\u00a0(use:\u00a0OFFICIAL)</p><p><b>status</b>: active</p><p><b>for</b>: </p><ul><li><a href=\"#ManufacturedItemDefinition_mid-925dad38f0afbba36223a82b3a766438\">See above (ManufacturedItemDefinition/mid-925dad38f0afbba36223a82b3a766438)</a></li><li><a href=\"#MedicinalProductDefinition_mpd4bcbbaec04bf6aceb2f71162205967e\">See above (MedicinalProductDefinition/mpd4bcbbaec04bf6aceb2f71162205967e)</a></li><li><a href=\"#AdministrableProductDefinition_ap-925dad38f0afbba36223a82b3a766438\">See above (AdministrableProductDefinition/ap-925dad38f0afbba36223a82b3a766438)</a></li></ul><p><b>role</b>: excipient <span style=\"background: LightGoldenRodYellow; margin: 4px; border: 1px solid khaki\"> (rmswi#100000072082)</span></p><blockquote><p><b>substance</b></p><h3>Codes</h3><table class=\"grid\"><tr><td style=\"display: none\">-</td><td><b>Concept</b></td></tr><tr><td style=\"display: none\">*</td><td>sodium bicarbonate <span style=\"background: LightGoldenRodYellow; margin: 4px; border: 1px solid khaki\"> (beta#8MDF5V39QO)</span></td></tr></table></blockquote></div>"
      },
      "identifier" : {
        "use" : "official",
        "system" : "https://gsrs.ncats.nih.gov/ginas/app/beta",
        "value" : "8MDF5V39QO"
      },
      "status" : "active",
      "for" : [{
        "reference" : "ManufacturedItemDefinition/mid-925dad38f0afbba36223a82b3a766438"
      },
      {
        "reference" : "MedicinalProductDefinition/mpd4bcbbaec04bf6aceb2f71162205967e"
      },
      {
        "reference" : "AdministrableProductDefinition/ap-925dad38f0afbba36223a82b3a766438"
      }],
      "role" : {
        "coding" : [{
          "system" : "https://spor.ema.europa.eu/rmswi",
          "code" : "100000072082",
          "display" : "excipient"
        }]
      },
      "substance" : {
        "code" : {
          "concept" : {
            "coding" : [{
              "system" : "https://gsrs.ncats.nih.gov/ginas/app/beta",
              "code" : "8MDF5V39QO",
              "display" : "sodium bicarbonate"
            }]
          }
        }
      }
    }
  },
  {
    "fullUrl" : "http://hl7.eu/fhir/ig/gravitate-health/Ingredient/ingredient-for-calciovitaminad-povidone",
    "resource" : {
      "resourceType" : "Ingredient",
      "id" : "ingredient-for-calciovitaminad-povidone",
      "meta" : {
        "profile" : ["http://hl7.org/fhir/uv/emedicinal-product-info/StructureDefinition/Ingredient-uv-epi"]
      },
      "text" : {
        "status" : "generated",
        "div" : "<div xmlns=\"http://www.w3.org/1999/xhtml\"><p><b>Generated Narrative: Ingredient</b><a name=\"ingredient-for-calciovitaminad-povidone\"> </a></p><div style=\"display: inline-block; background-color: #d9e0e7; padding: 6px; margin: 4px; border: 1px solid #8da1b4; border-radius: 5px; line-height: 60%\"><p style=\"margin-bottom: 0px\">Resource Ingredient &quot;ingredient-for-calciovitaminad-povidone&quot; </p><p style=\"margin-bottom: 0px\">Profile: <a href=\"https://build.fhir.org/ig/HL7/emedicinal-product-info//StructureDefinition-Ingredient-uv-epi.html\">Ingredient (ePI)</a></p></div><p><b>identifier</b>: id:\u00a0FZ989GH94E\u00a0(use:\u00a0OFFICIAL)</p><p><b>status</b>: active</p><p><b>for</b>: </p><ul><li><a href=\"#ManufacturedItemDefinition_mid-925dad38f0afbba36223a82b3a766438\">See above (ManufacturedItemDefinition/mid-925dad38f0afbba36223a82b3a766438)</a></li><li><a href=\"#MedicinalProductDefinition_mpd4bcbbaec04bf6aceb2f71162205967e\">See above (MedicinalProductDefinition/mpd4bcbbaec04bf6aceb2f71162205967e)</a></li><li><a href=\"#AdministrableProductDefinition_ap-925dad38f0afbba36223a82b3a766438\">See above (AdministrableProductDefinition/ap-925dad38f0afbba36223a82b3a766438)</a></li></ul><p><b>role</b>: excipient <span style=\"background: LightGoldenRodYellow; margin: 4px; border: 1px solid khaki\"> (rmswi#100000072082)</span></p><blockquote><p><b>substance</b></p><h3>Codes</h3><table class=\"grid\"><tr><td style=\"display: none\">-</td><td><b>Concept</b></td></tr><tr><td style=\"display: none\">*</td><td>povidone <span style=\"background: LightGoldenRodYellow; margin: 4px; border: 1px solid khaki\"> (beta#FZ989GH94E)</span></td></tr></table></blockquote></div>"
      },
      "identifier" : {
        "use" : "official",
        "system" : "https://gsrs.ncats.nih.gov/ginas/app/beta",
        "value" : "FZ989GH94E"
      },
      "status" : "active",
      "for" : [{
        "reference" : "ManufacturedItemDefinition/mid-925dad38f0afbba36223a82b3a766438"
      },
      {
        "reference" : "MedicinalProductDefinition/mpd4bcbbaec04bf6aceb2f71162205967e"
      },
      {
        "reference" : "AdministrableProductDefinition/ap-925dad38f0afbba36223a82b3a766438"
      }],
      "role" : {
        "coding" : [{
          "system" : "https://spor.ema.europa.eu/rmswi",
          "code" : "100000072082",
          "display" : "excipient"
        }]
      },
      "substance" : {
        "code" : {
          "concept" : {
            "coding" : [{
              "system" : "https://gsrs.ncats.nih.gov/ginas/app/beta",
              "code" : "FZ989GH94E",
              "display" : "povidone"
            }]
          }
        }
      }
    }
  },
  {
    "fullUrl" : "http://hl7.eu/fhir/ig/gravitate-health/Ingredient/ingredient-for-calciovitaminad-saccharinsodium",
    "resource" : {
      "resourceType" : "Ingredient",
      "id" : "ingredient-for-calciovitaminad-saccharinsodium",
      "meta" : {
        "profile" : ["http://hl7.org/fhir/uv/emedicinal-product-info/StructureDefinition/Ingredient-uv-epi"]
      },
      "text" : {
        "status" : "generated",
        "div" : "<div xmlns=\"http://www.w3.org/1999/xhtml\"><p><b>Generated Narrative: Ingredient</b><a name=\"ingredient-for-calciovitaminad-saccharinsodium\"> </a></p><div style=\"display: inline-block; background-color: #d9e0e7; padding: 6px; margin: 4px; border: 1px solid #8da1b4; border-radius: 5px; line-height: 60%\"><p style=\"margin-bottom: 0px\">Resource Ingredient &quot;ingredient-for-calciovitaminad-saccharinsodium&quot; </p><p style=\"margin-bottom: 0px\">Profile: <a href=\"https://build.fhir.org/ig/HL7/emedicinal-product-info//StructureDefinition-Ingredient-uv-epi.html\">Ingredient (ePI)</a></p></div><p><b>identifier</b>: id:\u00a0SB8ZUX40TY\u00a0(use:\u00a0OFFICIAL)</p><p><b>status</b>: active</p><p><b>for</b>: </p><ul><li><a href=\"#ManufacturedItemDefinition_mid-925dad38f0afbba36223a82b3a766438\">See above (ManufacturedItemDefinition/mid-925dad38f0afbba36223a82b3a766438)</a></li><li><a href=\"#MedicinalProductDefinition_mpd4bcbbaec04bf6aceb2f71162205967e\">See above (MedicinalProductDefinition/mpd4bcbbaec04bf6aceb2f71162205967e)</a></li><li><a href=\"#AdministrableProductDefinition_ap-925dad38f0afbba36223a82b3a766438\">See above (AdministrableProductDefinition/ap-925dad38f0afbba36223a82b3a766438)</a></li></ul><p><b>role</b>: excipient <span style=\"background: LightGoldenRodYellow; margin: 4px; border: 1px solid khaki\"> (rmswi#100000072082)</span></p><blockquote><p><b>substance</b></p><h3>Codes</h3><table class=\"grid\"><tr><td style=\"display: none\">-</td><td><b>Concept</b></td></tr><tr><td style=\"display: none\">*</td><td>saccharin sodium <span style=\"background: LightGoldenRodYellow; margin: 4px; border: 1px solid khaki\"> (beta#SB8ZUX40TY)</span></td></tr></table></blockquote></div>"
      },
      "identifier" : {
        "use" : "official",
        "system" : "https://gsrs.ncats.nih.gov/ginas/app/beta",
        "value" : "SB8ZUX40TY"
      },
      "status" : "active",
      "for" : [{
        "reference" : "ManufacturedItemDefinition/mid-925dad38f0afbba36223a82b3a766438"
      },
      {
        "reference" : "MedicinalProductDefinition/mpd4bcbbaec04bf6aceb2f71162205967e"
      },
      {
        "reference" : "AdministrableProductDefinition/ap-925dad38f0afbba36223a82b3a766438"
      }],
      "role" : {
        "coding" : [{
          "system" : "https://spor.ema.europa.eu/rmswi",
          "code" : "100000072082",
          "display" : "excipient"
        }]
      },
      "substance" : {
        "code" : {
          "concept" : {
            "coding" : [{
              "system" : "https://gsrs.ncats.nih.gov/ginas/app/beta",
              "code" : "SB8ZUX40TY",
              "display" : "saccharin sodium"
            }]
          }
        }
      }
    }
  },
  {
    "fullUrl" : "http://hl7.eu/fhir/ig/gravitate-health/Ingredient/ingredient-for-calciovitaminad-sodiumcyclamate",
    "resource" : {
      "resourceType" : "Ingredient",
      "id" : "ingredient-for-calciovitaminad-sodiumcyclamate",
      "meta" : {
        "profile" : ["http://hl7.org/fhir/uv/emedicinal-product-info/StructureDefinition/Ingredient-uv-epi"]
      },
      "text" : {
        "status" : "generated",
        "div" : "<div xmlns=\"http://www.w3.org/1999/xhtml\"><p><b>Generated Narrative: Ingredient</b><a name=\"ingredient-for-calciovitaminad-sodiumcyclamate\"> </a></p><div style=\"display: inline-block; background-color: #d9e0e7; padding: 6px; margin: 4px; border: 1px solid #8da1b4; border-radius: 5px; line-height: 60%\"><p style=\"margin-bottom: 0px\">Resource Ingredient &quot;ingredient-for-calciovitaminad-sodiumcyclamate&quot; </p><p style=\"margin-bottom: 0px\">Profile: <a href=\"https://build.fhir.org/ig/HL7/emedicinal-product-info//StructureDefinition-Ingredient-uv-epi.html\">Ingredient (ePI)</a></p></div><p><b>identifier</b>: id:\u00a01I6F42RME1\u00a0(use:\u00a0OFFICIAL)</p><p><b>status</b>: active</p><p><b>for</b>: </p><ul><li><a href=\"#ManufacturedItemDefinition_mid-925dad38f0afbba36223a82b3a766438\">See above (ManufacturedItemDefinition/mid-925dad38f0afbba36223a82b3a766438)</a></li><li><a href=\"#MedicinalProductDefinition_mpd4bcbbaec04bf6aceb2f71162205967e\">See above (MedicinalProductDefinition/mpd4bcbbaec04bf6aceb2f71162205967e)</a></li><li><a href=\"#AdministrableProductDefinition_ap-925dad38f0afbba36223a82b3a766438\">See above (AdministrableProductDefinition/ap-925dad38f0afbba36223a82b3a766438)</a></li></ul><p><b>role</b>: excipient <span style=\"background: LightGoldenRodYellow; margin: 4px; border: 1px solid khaki\"> (rmswi#100000072082)</span></p><blockquote><p><b>substance</b></p><h3>Codes</h3><table class=\"grid\"><tr><td style=\"display: none\">-</td><td><b>Concept</b></td></tr><tr><td style=\"display: none\">*</td><td>sodium cyclamate <span style=\"background: LightGoldenRodYellow; margin: 4px; border: 1px solid khaki\"> (beta#1I6F42RME1)</span></td></tr></table></blockquote></div>"
      },
      "identifier" : {
        "use" : "official",
        "system" : "https://gsrs.ncats.nih.gov/ginas/app/beta",
        "value" : "1I6F42RME1"
      },
      "status" : "active",
      "for" : [{
        "reference" : "ManufacturedItemDefinition/mid-925dad38f0afbba36223a82b3a766438"
      },
      {
        "reference" : "MedicinalProductDefinition/mpd4bcbbaec04bf6aceb2f71162205967e"
      },
      {
        "reference" : "AdministrableProductDefinition/ap-925dad38f0afbba36223a82b3a766438"
      }],
      "role" : {
        "coding" : [{
          "system" : "https://spor.ema.europa.eu/rmswi",
          "code" : "100000072082",
          "display" : "excipient"
        }]
      },
      "substance" : {
        "code" : {
          "concept" : {
            "coding" : [{
              "system" : "https://gsrs.ncats.nih.gov/ginas/app/beta",
              "code" : "1I6F42RME1",
              "display" : "sodium cyclamate"
            }]
          }
        }
      }
    }
  },
  {
    "fullUrl" : "http://hl7.eu/fhir/ig/gravitate-health/Ingredient/ingredient-for-calciovitaminad-macrogol6000",
    "resource" : {
      "resourceType" : "Ingredient",
      "id" : "ingredient-for-calciovitaminad-macrogol6000",
      "meta" : {
        "profile" : ["http://hl7.org/fhir/uv/emedicinal-product-info/StructureDefinition/Ingredient-uv-epi"]
      },
      "text" : {
        "status" : "generated",
        "div" : "<div xmlns=\"http://www.w3.org/1999/xhtml\"><p><b>Generated Narrative: Ingredient</b><a name=\"ingredient-for-calciovitaminad-macrogol6000\"> </a></p><div style=\"display: inline-block; background-color: #d9e0e7; padding: 6px; margin: 4px; border: 1px solid #8da1b4; border-radius: 5px; line-height: 60%\"><p style=\"margin-bottom: 0px\">Resource Ingredient &quot;ingredient-for-calciovitaminad-macrogol6000&quot; </p><p style=\"margin-bottom: 0px\">Profile: <a href=\"https://build.fhir.org/ig/HL7/emedicinal-product-info//StructureDefinition-Ingredient-uv-epi.html\">Ingredient (ePI)</a></p></div><p><b>identifier</b>: id:\u00a030IQX730WE\u00a0(use:\u00a0OFFICIAL)</p><p><b>status</b>: active</p><p><b>for</b>: </p><ul><li><a href=\"#ManufacturedItemDefinition_mid-925dad38f0afbba36223a82b3a766438\">See above (ManufacturedItemDefinition/mid-925dad38f0afbba36223a82b3a766438)</a></li><li><a href=\"#MedicinalProductDefinition_mpd4bcbbaec04bf6aceb2f71162205967e\">See above (MedicinalProductDefinition/mpd4bcbbaec04bf6aceb2f71162205967e)</a></li><li><a href=\"#AdministrableProductDefinition_ap-925dad38f0afbba36223a82b3a766438\">See above (AdministrableProductDefinition/ap-925dad38f0afbba36223a82b3a766438)</a></li></ul><p><b>role</b>: excipient <span style=\"background: LightGoldenRodYellow; margin: 4px; border: 1px solid khaki\"> (rmswi#100000072082)</span></p><blockquote><p><b>substance</b></p><h3>Codes</h3><table class=\"grid\"><tr><td style=\"display: none\">-</td><td><b>Concept</b></td></tr><tr><td style=\"display: none\">*</td><td>macrogol 6000 <span style=\"background: LightGoldenRodYellow; margin: 4px; border: 1px solid khaki\"> (beta#30IQX730WE)</span></td></tr></table></blockquote></div>"
      },
      "identifier" : {
        "use" : "official",
        "system" : "https://gsrs.ncats.nih.gov/ginas/app/beta",
        "value" : "30IQX730WE"
      },
      "status" : "active",
      "for" : [{
        "reference" : "ManufacturedItemDefinition/mid-925dad38f0afbba36223a82b3a766438"
      },
      {
        "reference" : "MedicinalProductDefinition/mpd4bcbbaec04bf6aceb2f71162205967e"
      },
      {
        "reference" : "AdministrableProductDefinition/ap-925dad38f0afbba36223a82b3a766438"
      }],
      "role" : {
        "coding" : [{
          "system" : "https://spor.ema.europa.eu/rmswi",
          "code" : "100000072082",
          "display" : "excipient"
        }]
      },
      "substance" : {
        "code" : {
          "concept" : {
            "coding" : [{
              "system" : "https://gsrs.ncats.nih.gov/ginas/app/beta",
              "code" : "30IQX730WE",
              "display" : "macrogol 6000"
            }]
          }
        }
      }
    }
  },
  {
    "fullUrl" : "http://hl7.eu/fhir/ig/gravitate-health/SubstanceDefinition/substance-calciumcarbonate",
    "resource" : {
      "resourceType" : "SubstanceDefinition",
      "id" : "substance-calciumcarbonate",
      "meta" : {
        "profile" : ["http://hl7.org/fhir/uv/emedicinal-product-info/StructureDefinition/SubstanceDefinition-uv-epi"]
      },
      "text" : {
        "status" : "generated",
        "div" : "<div xmlns=\"http://www.w3.org/1999/xhtml\"><p><b>Generated Narrative: SubstanceDefinition</b><a name=\"substance-calciumcarbonate\"> </a></p><div style=\"display: inline-block; background-color: #d9e0e7; padding: 6px; margin: 4px; border: 1px solid #8da1b4; border-radius: 5px; line-height: 60%\"><p style=\"margin-bottom: 0px\">Resource SubstanceDefinition &quot;substance-calciumcarbonate&quot; </p><p style=\"margin-bottom: 0px\">Profile: <a href=\"https://build.fhir.org/ig/HL7/emedicinal-product-info//StructureDefinition-SubstanceDefinition-uv-epi.html\">SubstanceDefinition (ePI)</a></p></div><p><b>identifier</b>: id:\u00a0H0G9379FGK\u00a0(use:\u00a0OFFICIAL)</p><p><b>version</b>: 1</p><p><b>status</b>: Active <span style=\"background: LightGoldenRodYellow; margin: 4px; border: 1px solid khaki\"> (<a href=\"http://hl7.org/fhir/R5/codesystem-publication-status.html\">PublicationStatus</a>#active)</span></p><p><b>manufacturer</b>: <a href=\"#Organization_mah-b7afabe350ac415f70e662ba6c703030\">See above (Organization/mah-b7afabe350ac415f70e662ba6c703030)</a></p><h3>MolecularWeights</h3><table class=\"grid\"><tr><td style=\"display: none\">-</td><td><b>Type</b></td><td><b>Amount</b></td></tr><tr><td style=\"display: none\">*</td><td>exact <span style=\"background: LightGoldenRodYellow; margin: 4px; border: 1px solid khaki\"> ()</span></td><td>100.09</td></tr></table><h3>Structures</h3><table class=\"grid\"><tr><td style=\"display: none\">-</td><td><b>MolecularFormula</b></td></tr><tr><td style=\"display: none\">*</td><td>CO3.Ca</td></tr></table><h3>Names</h3><table class=\"grid\"><tr><td style=\"display: none\">-</td><td><b>Name</b></td><td><b>Type</b></td></tr><tr><td style=\"display: none\">*</td><td>CALCII CARBONAS [WHO-IP LATIN]</td><td>Chemical Name <span style=\"background: LightGoldenRodYellow; margin: 4px; border: 1px solid khaki\"> (#x)</span></td></tr></table></div>"
      },
      "identifier" : [{
        "use" : "official",
        "system" : "https://gsrs.ncats.nih.gov/ginas/app/beta/",
        "value" : "H0G9379FGK"
      }],
      "version" : "1",
      "status" : {
        "coding" : [{
          "system" : "http://hl7.org/fhir/publication-status",
          "code" : "active"
        }]
      },
      "manufacturer" : [{
        "reference" : "Organization/mah-b7afabe350ac415f70e662ba6c703030"
      }],
      "molecularWeight" : [{
        "type" : {
          "text" : "exact"
        },
        "amount" : {
          "value" : 100.09
        }
      }],
      "structure" : {
        "molecularFormula" : "CO3.Ca"
      },
      "name" : [{
        "name" : "CALCII CARBONAS [WHO-IP LATIN]",
        "type" : {
          "coding" : [{
            "system" : "https://gsrs.ncats.nih.gov/ginas/app/beta/",
            "code" : "x",
            "display" : "Chemical Name"
          }]
        }
      }]
    }
  },
  {
    "fullUrl" : "http://hl7.eu/fhir/ig/gravitate-health/AdministrableProductDefinition/ap-925dad38f0afbba36223a82b3a766438",
    "resource" : {
      "resourceType" : "AdministrableProductDefinition",
      "id" : "ap-925dad38f0afbba36223a82b3a766438",
      "meta" : {
        "profile" : ["http://hl7.org/fhir/uv/emedicinal-product-info/StructureDefinition/AdministrableProductDefinition-uv-epi"]
      },
      "text" : {
        "status" : "generated",
        "div" : "<div xmlns=\"http://www.w3.org/1999/xhtml\"><p><b>Generated Narrative: AdministrableProductDefinition</b><a name=\"ap-925dad38f0afbba36223a82b3a766438\"> </a></p><div style=\"display: inline-block; background-color: #d9e0e7; padding: 6px; margin: 4px; border: 1px solid #8da1b4; border-radius: 5px; line-height: 60%\"><p style=\"margin-bottom: 0px\">Resource AdministrableProductDefinition &quot;ap-925dad38f0afbba36223a82b3a766438&quot; </p><p style=\"margin-bottom: 0px\">Profile: <a href=\"https://build.fhir.org/ig/HL7/emedicinal-product-info//StructureDefinition-AdministrableProductDefinition-uv-epi.html\">AdministrableProductDefinition (ePI)</a></p></div><p><b>identifier</b>: id:\u00a0xx</p><p><b>status</b>: active</p><p><b>formOf</b>: <a href=\"#MedicinalProductDefinition_mpd4bcbbaec04bf6aceb2f71162205967e\">See above (MedicinalProductDefinition/mpd4bcbbaec04bf6aceb2f71162205967e)</a></p><p><b>administrableDoseForm</b>: Effervescent tablet <span style=\"background: LightGoldenRodYellow; margin: 4px; border: 1px solid khaki\"> (rmswi#100000073681)</span></p><p><b>unitOfPresentation</b>: tablet <span style=\"background: LightGoldenRodYellow; margin: 4px; border: 1px solid khaki\"> (rmswi#200000002152)</span></p><p><b>producedFrom</b>: <a href=\"#ManufacturedItemDefinition_mid-925dad38f0afbba36223a82b3a766438\">See above (ManufacturedItemDefinition/mid-925dad38f0afbba36223a82b3a766438)</a></p><blockquote><p><b>routeOfAdministration</b></p><p><b>code</b>: Oral use <span style=\"background: LightGoldenRodYellow; margin: 4px; border: 1px solid khaki\"> (rmswi#100000073619)</span></p><h3>TargetSpecies</h3><table class=\"grid\"><tr><td style=\"display: none\">-</td><td><b>Code</b></td></tr><tr><td style=\"display: none\">*</td><td>Human <span style=\"background: LightGoldenRodYellow; margin: 4px; border: 1px solid khaki\"> (rmswi#100000109093)</span></td></tr></table></blockquote></div>"
      },
      "identifier" : [{
        "system" : "https://spor.ema.europa.eu/pmswi",
        "value" : "xx"
      }],
      "status" : "active",
      "formOf" : [{
        "reference" : "MedicinalProductDefinition/mpd4bcbbaec04bf6aceb2f71162205967e"
      }],
      "administrableDoseForm" : {
        "coding" : [{
          "system" : "https://spor.ema.europa.eu/rmswi",
          "code" : "100000073681",
          "display" : "Effervescent tablet"
        }]
      },
      "unitOfPresentation" : {
        "coding" : [{
          "system" : "https://spor.ema.europa.eu/rmswi",
          "code" : "200000002152",
          "display" : "tablet"
        }]
      },
      "producedFrom" : [{
        "reference" : "ManufacturedItemDefinition/mid-925dad38f0afbba36223a82b3a766438"
      }],
      "routeOfAdministration" : [{
        "code" : {
          "coding" : [{
            "system" : "https://spor.ema.europa.eu/rmswi",
            "code" : "100000073619",
            "display" : "Oral use"
          }]
        },
        "targetSpecies" : [{
          "code" : {
            "coding" : [{
              "system" : "https://spor.ema.europa.eu/rmswi",
              "code" : "100000109093",
              "display" : "Human"
            }]
          }
        }]
      }]
    }
  },
  {
    "fullUrl" : "http://hl7.eu/fhir/ig/gravitate-health/RegulatedAuthorization/authorization925dad38f0afbba36223a82b3a7664380",
    "resource" : {
      "resourceType" : "RegulatedAuthorization",
      "id" : "authorization925dad38f0afbba36223a82b3a7664380",
      "meta" : {
        "profile" : ["http://hl7.org/fhir/uv/emedicinal-product-info/StructureDefinition/RegulatedAuthorization-uv-epi"]
      },
      "text" : {
        "status" : "generated",
        "div" : "<div xmlns=\"http://www.w3.org/1999/xhtml\"><p><b>Generated Narrative: RegulatedAuthorization</b><a name=\"authorization925dad38f0afbba36223a82b3a7664380\"> </a></p><div style=\"display: inline-block; background-color: #d9e0e7; padding: 6px; margin: 4px; border: 1px solid #8da1b4; border-radius: 5px; line-height: 60%\"><p style=\"margin-bottom: 0px\">Resource RegulatedAuthorization &quot;authorization925dad38f0afbba36223a82b3a7664380&quot; </p><p style=\"margin-bottom: 0px\">Profile: <a href=\"https://build.fhir.org/ig/HL7/emedicinal-product-info//StructureDefinition-RegulatedAuthorization-uv-epi.html\">RegulatedAuthorization (ePI)</a></p></div><p><b>identifier</b>: id:\u00a068290\u00a0(use:\u00a0OFFICIAL)</p><p><b>subject</b>: <a href=\"#MedicinalProductDefinition_mpd4bcbbaec04bf6aceb2f71162205967e\">See above (MedicinalProductDefinition/mpd4bcbbaec04bf6aceb2f71162205967e)</a></p><p><b>type</b>: Marketing Authorisation <span style=\"background: LightGoldenRodYellow; margin: 4px; border: 1px solid khaki\"> (rmswi#100000072062)</span></p><p><b>status</b>: Active <span style=\"background: LightGoldenRodYellow; margin: 4px; border: 1px solid khaki\"> (<a href=\"http://hl7.org/fhir/R5/codesystem-publication-status.html\">PublicationStatus</a>#active)</span></p><p><b>statusDate</b>: 2012-01-01</p><p><b>holder</b>: <a href=\"#Organization_mah-b7afabe350ac415f70e662ba6c703030\">See above (Organization/mah-b7afabe350ac415f70e662ba6c703030)</a></p></div>"
      },
      "identifier" : [{
        "use" : "official",
        "system" : "https://spor.ema.europa.eu/pmswi",
        "value" : "68290"
      }],
      "subject" : [{
        "reference" : "MedicinalProductDefinition/mpd4bcbbaec04bf6aceb2f71162205967e"
      }],
      "type" : {
        "coding" : [{
          "system" : "https://spor.ema.europa.eu/rmswi",
          "code" : "100000072062",
          "display" : "Marketing Authorisation"
        }]
      },
      "status" : {
        "coding" : [{
          "system" : "http://hl7.org/fhir/publication-status",
          "code" : "active",
          "display" : "Active"
        }]
      },
      "statusDate" : "2012-01-01",
      "holder" : {
        "reference" : "Organization/mah-b7afabe350ac415f70e662ba6c703030"
      }
    }
  },
  {
    "fullUrl" : "http://hl7.eu/fhir/ig/gravitate-health/Organization/mah-b7afabe350ac415f70e662ba6c703030",
    "resource" : {
      "resourceType" : "Organization",
      "id" : "mah-b7afabe350ac415f70e662ba6c703030",
      "meta" : {
        "profile" : ["http://hl7.org/fhir/uv/emedicinal-product-info/StructureDefinition/Organization-uv-epi"]
      },
      "text" : {
        "status" : "generated",
        "div" : "<div xmlns=\"http://www.w3.org/1999/xhtml\"><p><b>Generated Narrative: Organization</b><a name=\"mah-b7afabe350ac415f70e662ba6c703030\"> </a></p><div style=\"display: inline-block; background-color: #d9e0e7; padding: 6px; margin: 4px; border: 1px solid #8da1b4; border-radius: 5px; line-height: 60%\"><p style=\"margin-bottom: 0px\">Resource Organization &quot;mah-b7afabe350ac415f70e662ba6c703030&quot; </p><p style=\"margin-bottom: 0px\">Profile: <a href=\"https://build.fhir.org/ig/HL7/emedicinal-product-info//StructureDefinition-Organization-uv-epi.html\">Organization (ePI)</a></p></div><p><b>identifier</b>: id:\u00a0xx\u00a0(use:\u00a0OFFICIAL)</p><p><b>active</b>: true</p><p><b>type</b>: Marketing authorisation holder <span style=\"background: LightGoldenRodYellow; margin: 4px; border: 1px solid khaki\"> (rmswi#220000000034)</span></p><p><b>name</b>: Laboratorios Farmacéuticos ROVI, S.A.</p><h3>Contacts</h3><table class=\"grid\"><tr><td style=\"display: none\">-</td><td><b>Address</b></td></tr><tr><td style=\"display: none\">*</td><td>C/ Julián Camarillo, 35 Madrid ES(WORK)</td></tr></table></div>"
      },
      "identifier" : [{
        "use" : "official",
        "system" : "https://spor.ema.europa.eu/omswi",
        "value" : "xx"
      }],
      "active" : true,
      "type" : [{
        "coding" : [{
          "system" : "https://spor.ema.europa.eu/rmswi",
          "code" : "220000000034",
          "display" : "Marketing authorisation holder"
        }]
      }],
      "name" : "Laboratorios Farmacéuticos ROVI, S.A.",
      "contact" : [{
        "address" : {
          "use" : "work",
          "type" : "physical",
          "text" : "C/ Julián Camarillo, 35 Madrid ES",
          "line" : ["C/ Julián Camarillo, 35"],
          "city" : "Madrid",
          "postalCode" : "28037",
          "country" : "ES"
        }
      }]
    }
  },
  {
    "fullUrl" : "http://hl7.eu/fhir/ig/gravitate-health/PackagedProductDefinition/ppd-740c0d6d7605c10cb166cd0ee16908f9",
    "resource" : {
      "resourceType" : "PackagedProductDefinition",
      "id" : "ppd-740c0d6d7605c10cb166cd0ee16908f9",
      "meta" : {
        "profile" : ["http://hl7.org/fhir/uv/emedicinal-product-info/StructureDefinition/PackagedProductDefinition-uv-epi"]
      },
      "text" : {
        "status" : "generated",
        "div" : "<div xmlns=\"http://www.w3.org/1999/xhtml\"><p><b>Generated Narrative: PackagedProductDefinition</b><a name=\"ppd-740c0d6d7605c10cb166cd0ee16908f9\"> </a></p><div style=\"display: inline-block; background-color: #d9e0e7; padding: 6px; margin: 4px; border: 1px solid #8da1b4; border-radius: 5px; line-height: 60%\"><p style=\"margin-bottom: 0px\">Resource PackagedProductDefinition &quot;ppd-740c0d6d7605c10cb166cd0ee16908f9&quot; </p><p style=\"margin-bottom: 0px\">Profile: <a href=\"https://build.fhir.org/ig/HL7/emedicinal-product-info//StructureDefinition-PackagedProductDefinition-uv-epi.html\">PackagedProductDefinition (ePI)</a></p></div><p><b>identifier</b>: id:\u00a0x\u00a0(use:\u00a0OFFICIAL)</p><p><b>name</b>: Calcio/Vitamina D3 ROVI 1000 mg/880 UI comprimidos efervescentes 30</p><p><b>type</b>: Chemical Medicinal Prodcut <span style=\"background: LightGoldenRodYellow; margin: 4px; border: 1px solid khaki\"> (rmswi#100000155527)</span></p><p><b>packageFor</b>: <a href=\"#MedicinalProductDefinition_mpd4bcbbaec04bf6aceb2f71162205967e\">See above (MedicinalProductDefinition/mpd4bcbbaec04bf6aceb2f71162205967e)</a></p><p><b>status</b>: Active <span style=\"background: LightGoldenRodYellow; margin: 4px; border: 1px solid khaki\"> (<a href=\"http://hl7.org/fhir/R5/codesystem-publication-status.html\">PublicationStatus</a>#active)</span></p><p><b>statusDate</b>: 2012-01-03</p><p><b>containedItemQuantity</b>: 2500 mg<span style=\"background: LightGoldenRodYellow\"> (Details: UCUM code mg = 'mg')</span></p><p><b>copackagedIndicator</b>: false</p><blockquote><p><b>packaging</b></p><p><b>type</b>: Box <span style=\"background: LightGoldenRodYellow; margin: 4px; border: 1px solid khaki\"> (rmswi#100000073498)</span></p><p><b>quantity</b>: 1</p><p><b>material</b>: Cardboard <span style=\"background: LightGoldenRodYellow; margin: 4px; border: 1px solid khaki\"> (rmswi#200000003529)</span></p><blockquote><p><b>packaging</b></p><p><b>identifier</b>: id:\u00a0123456</p><p><b>type</b>: Blister <span style=\"background: LightGoldenRodYellow; margin: 4px; border: 1px solid khaki\"> (rmswi#100000073496)</span></p><p><b>quantity</b>: 30</p><p><b>material</b>: cardboard <span style=\"background: LightGoldenRodYellow; margin: 4px; border: 1px solid khaki\"> (rmswi#xxx)</span></p><blockquote><p><b>containedItem</b></p></blockquote></blockquote></blockquote></div>"
      },
      "identifier" : [{
        "use" : "official",
        "system" : "https://spor.ema.europa.eu/pmswi",
        "value" : "x"
      }],
      "name" : "Calcio/Vitamina D3 ROVI 1000 mg/880 UI comprimidos efervescentes 30",
      "type" : {
        "coding" : [{
          "system" : "https://spor.ema.europa.eu/rmswi",
          "code" : "100000155527",
          "display" : "Chemical Medicinal Prodcut"
        }]
      },
      "packageFor" : [{
        "reference" : "MedicinalProductDefinition/mpd4bcbbaec04bf6aceb2f71162205967e"
      }],
      "status" : {
        "coding" : [{
          "system" : "http://hl7.org/fhir/publication-status",
          "code" : "active",
          "display" : "Active"
        }]
      },
      "statusDate" : "2012-01-03",
      "containedItemQuantity" : [{
        "value" : 2500,
        "system" : "http://unitsofmeasure.org",
        "code" : "mg"
      }],
      "copackagedIndicator" : false,
      "packaging" : {
        "type" : {
          "coding" : [{
            "system" : "https://spor.ema.europa.eu/rmswi",
            "code" : "100000073498",
            "display" : "Box"
          }]
        },
        "quantity" : 1,
        "material" : [{
          "coding" : [{
            "system" : "https://spor.ema.europa.eu/rmswi",
            "code" : "200000003529",
            "display" : "Cardboard"
          }]
        }],
        "packaging" : [{
          "identifier" : [{
            "system" : "https://spor.ema.europa.eu/pmswi",
            "value" : "123456"
          }],
          "type" : {
            "coding" : [{
              "system" : "https://spor.ema.europa.eu/rmswi",
              "code" : "100000073496",
              "display" : "Blister"
            }]
          },
          "quantity" : 30,
          "material" : [{
            "coding" : [{
              "system" : "https://spor.ema.europa.eu/rmswi",
              "code" : "xxx",
              "display" : "cardboard"
            }]
          }],
          "containedItem" : [{
            "item" : {
              "reference" : {
                "reference" : "ManufacturedItemDefinition/mid-925dad38f0afbba36223a82b3a766438"
              }
            }
          }]
        }]
      }
    }
  },
  {
    "fullUrl" : "http://hl7.eu/fhir/ig/gravitate-health/MedicinalProductDefinition/mpd4bcbbaec04bf6aceb2f71162205967e",
    "resource" : {
      "resourceType" : "MedicinalProductDefinition",
      "id" : "mpd4bcbbaec04bf6aceb2f71162205967e",
      "meta" : {
        "profile" : ["http://hl7.org/fhir/uv/emedicinal-product-info/StructureDefinition/MedicinalProductDefinition-uv-epi"]
      },
      "text" : {
        "status" : "generated",
        "div" : "<div xmlns=\"http://www.w3.org/1999/xhtml\"><p><b>Generated Narrative: MedicinalProductDefinition</b><a name=\"mpd4bcbbaec04bf6aceb2f71162205967e\"> </a></p><div style=\"display: inline-block; background-color: #d9e0e7; padding: 6px; margin: 4px; border: 1px solid #8da1b4; border-radius: 5px; line-height: 60%\"><p style=\"margin-bottom: 0px\">Resource MedicinalProductDefinition &quot;mpd4bcbbaec04bf6aceb2f71162205967e&quot; </p><p style=\"margin-bottom: 0px\">Profile: <a href=\"https://build.fhir.org/ig/HL7/emedicinal-product-info//StructureDefinition-MedicinalProductDefinition-uv-epi.html\">MedicinalProductDefinition (ePI)</a></p></div><p><b>identifier</b>: id:\u00a068290, id:\u00a00xF79CABF272B6A7EEF104DDDA44E82716</p><p><b>type</b>: Medicinal Product <span style=\"background: LightGoldenRodYellow; margin: 4px; border: 1px solid khaki\"> (<a href=\"http://hl7.org/fhir/R5/codesystem-medicinal-product-type.html\">Medicinal Product Type</a>#MedicinalProduct)</span></p><p><b>domain</b>: Human use <span style=\"background: LightGoldenRodYellow; margin: 4px; border: 1px solid khaki\"> (<a href=\"http://hl7.org/fhir/R5/codesystem-medicinal-product-domain.html\">Medicinal Product Domain</a>#Human)</span></p><p><b>status</b>: active <span style=\"background: LightGoldenRodYellow; margin: 4px; border: 1px solid khaki\"> (<a href=\"http://hl7.org/fhir/R5/codesystem-publication-status.html\">PublicationStatus</a>#active)</span></p><p><b>legalStatusOfSupply</b>: Medicinal product subject to medical prescription <span style=\"background: LightGoldenRodYellow; margin: 4px; border: 1px solid khaki\"> (rmswi#100000000000)</span></p><blockquote><p><b>name</b></p><p><b>productName</b>: Calcio/Vitamina D3 ROVI 1000 mg/880 UI comprimidos efervescentes</p><p><b>type</b>: Full name <span style=\"background: LightGoldenRodYellow; margin: 4px; border: 1px solid khaki\"> (220000000000#220000000001)</span></p><blockquote><p><b>part</b></p><p><b>part</b>: Calcio/Vitamina</p><p><b>type</b>: Invented name part <span style=\"background: LightGoldenRodYellow; margin: 4px; border: 1px solid khaki\"> (220000000000#220000000002)</span></p></blockquote><blockquote><p><b>part</b></p><p><b>part</b>: Calcium carbonate/Vitamin D3</p><p><b>type</b>: Scientific name part <span style=\"background: LightGoldenRodYellow; margin: 4px; border: 1px solid khaki\"> (220000000000#220000000003)</span></p></blockquote><blockquote><p><b>part</b></p><p><b>part</b>: 2500 mg</p><p><b>type</b>: Strength part <span style=\"background: LightGoldenRodYellow; margin: 4px; border: 1px solid khaki\"> (220000000000#220000000004)</span></p></blockquote><blockquote><p><b>part</b></p><p><b>part</b>: Effervescent tablet</p><p><b>type</b>: Pharmaceutical dose form part <span style=\"background: LightGoldenRodYellow; margin: 4px; border: 1px solid khaki\"> (220000000000#220000000005)</span></p></blockquote><h3>Usages</h3><table class=\"grid\"><tr><td style=\"display: none\">-</td><td><b>Country</b></td><td><b>Jurisdiction</b></td><td><b>Language</b></td></tr><tr><td style=\"display: none\">*</td><td>Spain <span style=\"background: LightGoldenRodYellow; margin: 4px; border: 1px solid khaki\"> (<a href=\"http://terminology.hl7.org/5.3.0/CodeSystem-ISO3166Part1.html\">ISO 3166-1 Codes for the representation of names of countries and their subdivisions — Part 1: Country code</a>#ES)</span></td><td>Spain <span style=\"background: LightGoldenRodYellow; margin: 4px; border: 1px solid khaki\"> (<a href=\"http://terminology.hl7.org/5.3.0/CodeSystem-ISO3166Part1.html\">ISO 3166-1 Codes for the representation of names of countries and their subdivisions — Part 1: Country code</a>#ES)</span></td><td>English <span style=\"background: LightGoldenRodYellow; margin: 4px; border: 1px solid khaki\"> (<a href=\"http://terminology.hl7.org/5.3.0/CodeSystem-v3-ietf3066.html\">Tags for the Identification of Languages</a>#en)</span></td></tr></table></blockquote></div>"
      },
      "identifier" : [{
        "system" : "https://spor.ema.europa.eu/pmswi",
        "value" : "68290"
      },
      {
        "system" : "https://www.who-umc.org/phpid",
        "value" : "0xF79CABF272B6A7EEF104DDDA44E82716"
      }],
      "type" : {
        "coding" : [{
          "system" : "http://hl7.org/fhir/medicinal-product-type",
          "code" : "MedicinalProduct",
          "display" : "Medicinal Product"
        }]
      },
      "domain" : {
        "coding" : [{
          "system" : "http://hl7.org/fhir/medicinal-product-domain",
          "code" : "Human",
          "display" : "Human use"
        }]
      },
      "status" : {
        "coding" : [{
          "system" : "http://hl7.org/fhir/publication-status",
          "code" : "active",
          "display" : "active"
        }]
      },
      "legalStatusOfSupply" : {
        "coding" : [{
          "system" : "https://spor.ema.europa.eu/rmswi",
          "code" : "100000000000",
          "display" : "Medicinal product subject to medical prescription"
        }]
      },
      "name" : [{
        "productName" : "Calcio/Vitamina D3 ROVI 1000 mg/880 UI comprimidos efervescentes",
        "type" : {
          "coding" : [{
            "system" : "https://spor.ema.europa.eu/lists/220000000000",
            "code" : "220000000001",
            "display" : "Full name"
          }]
        },
        "part" : [{
          "part" : "Calcio/Vitamina",
          "type" : {
            "coding" : [{
              "system" : "https://spor.ema.europa.eu/lists/220000000000",
              "code" : "220000000002",
              "display" : "Invented name part"
            }]
          }
        },
        {
          "part" : "Calcium carbonate/Vitamin D3",
          "type" : {
            "coding" : [{
              "system" : "https://spor.ema.europa.eu/lists/220000000000",
              "code" : "220000000003",
              "display" : "Scientific name part"
            }]
          }
        },
        {
          "part" : "2500 mg",
          "type" : {
            "coding" : [{
              "system" : "https://spor.ema.europa.eu/lists/220000000000",
              "code" : "220000000004",
              "display" : "Strength part"
            }]
          }
        },
        {
          "part" : "Effervescent tablet",
          "type" : {
            "coding" : [{
              "system" : "https://spor.ema.europa.eu/lists/220000000000",
              "code" : "220000000005",
              "display" : "Pharmaceutical dose form part"
            }]
          }
        }],
        "usage" : [{
          "country" : {
            "coding" : [{
              "system" : "urn:iso:std:iso:3166",
              "code" : "ES"
            }]
          },
          "jurisdiction" : {
            "coding" : [{
              "system" : "urn:iso:std:iso:3166",
              "code" : "ES"
            }]
          },
          "language" : {
            "coding" : [{
              "system" : "urn:ietf:bcp:47",
              "code" : "en",
              "display" : "English"
            }]
          }
        }]
      }]
    }
  },
  {
    "fullUrl" : "http://hl7.eu/fhir/ig/gravitate-health/ManufacturedItemDefinition/mid-925dad38f0afbba36223a82b3a766438",
    "resource" : {
      "resourceType" : "ManufacturedItemDefinition",
      "id" : "mid-925dad38f0afbba36223a82b3a766438",
      "meta" : {
        "profile" : ["http://hl7.org/fhir/uv/emedicinal-product-info/StructureDefinition/ManufacturedItemDefinition-uv-epi"]
      },
      "text" : {
        "status" : "generated",
        "div" : "<div xmlns=\"http://www.w3.org/1999/xhtml\"><p><b>Generated Narrative: ManufacturedItemDefinition</b><a name=\"mid-925dad38f0afbba36223a82b3a766438\"> </a></p><div style=\"display: inline-block; background-color: #d9e0e7; padding: 6px; margin: 4px; border: 1px solid #8da1b4; border-radius: 5px; line-height: 60%\"><p style=\"margin-bottom: 0px\">Resource ManufacturedItemDefinition &quot;mid-925dad38f0afbba36223a82b3a766438&quot; </p><p style=\"margin-bottom: 0px\">Profile: <a href=\"https://build.fhir.org/ig/HL7/emedicinal-product-info//StructureDefinition-ManufacturedItemDefinition-uv-epi.html\">ManufacturedItemDefinition (ePI)</a></p></div><p><b>identifier</b>: id:\u00a068290\u00a0(use:\u00a0OFFICIAL)</p><p><b>status</b>: active</p><p><b>manufacturedDoseForm</b>: Effervescent tablet <span style=\"background: LightGoldenRodYellow; margin: 4px; border: 1px solid khaki\"> (#100000073681)</span></p><p><b>unitOfPresentation</b>: tablet <span style=\"background: LightGoldenRodYellow; margin: 4px; border: 1px solid khaki\"> (rmswi#200000002152)</span></p></div>"
      },
      "identifier" : [{
        "use" : "official",
        "system" : "https://spor.ema.europa.eu/pmswi",
        "value" : "68290"
      }],
      "status" : "active",
      "manufacturedDoseForm" : {
        "coding" : [{
          "system" : "https://spor.ema.europa.eu/rmswi/",
          "code" : "100000073681",
          "display" : "Effervescent tablet"
        }]
      },
      "unitOfPresentation" : {
        "coding" : [{
          "system" : "https://spor.ema.europa.eu/rmswi",
          "code" : "200000002152",
          "display" : "tablet"
        }]
      }
    }
  }]
}