{
  "resourceType" : "Bundle",
  "id" : "bundlepackageleaflet-en-040bd687344f34655b854f4b67248074",
  "meta" : {
    "profile" : ["http://hl7.org/fhir/uv/emedicinal-product-info/StructureDefinition/Bundle-uv-epi"]
  },
  "language" : "en",
  "identifier" : {
    "system" : "https://www.gravitatehealth.eu/sid/doc",
    "value" : "EU/1/17/1201/002"
  },
  "type" : "document",
  "timestamp" : "2023-06-27T10:09:22Z",
  "entry" : [{
    "fullUrl" : "http://hl7.eu/fhir/ig/gravitate-health/Composition/composition-en-040bd687344f34655b854f4b67248074",
    "resource" : {
      "resourceType" : "Composition",
      "id" : "composition-en-040bd687344f34655b854f4b67248074",
      "meta" : {
        "profile" : ["http://hl7.org/fhir/uv/emedicinal-product-info/StructureDefinition/Composition-uv-epi"]
      },
      "language" : "en",
      "text" : {
        "status" : "generated",
        "div" : "<div xmlns=\"http://www.w3.org/1999/xhtml\" xml:lang=\"en\" lang=\"en\"><p><b>Generated Narrative: Composition</b><a name=\"composition-en-040bd687344f34655b854f4b67248074\"> </a></p><div style=\"display: inline-block; background-color: #d9e0e7; padding: 6px; margin: 4px; border: 1px solid #8da1b4; border-radius: 5px; line-height: 60%\"><p style=\"margin-bottom: 0px\">Resource Composition &quot;composition-en-040bd687344f34655b854f4b67248074&quot;  (Language &quot;en&quot;) </p><p style=\"margin-bottom: 0px\">Profile: <a href=\"https://build.fhir.org/ig/HL7/emedicinal-product-info//StructureDefinition-Composition-uv-epi.html\">Composition (ePI)</a></p></div><p><b>identifier</b>: id:\u00a0b8d5ac467d953d2a9e5deb29f98ba14a</p><p><b>status</b>: final</p><p><b>type</b>: Package Leaflet <span style=\"background: LightGoldenRodYellow; margin: 4px; border: 1px solid khaki\"> (#100000155538)</span></p><p><b>category</b>: Raw <span style=\"background: LightGoldenRodYellow; margin: 4px; border: 1px solid khaki\"> (<a href=\"CodeSystem-epicategory-cs.html\">Category of EPI</a>#R)</span></p><p><b>date</b>: 2022-02-16 13:28:17+0000</p><p><b>author</b>: <a href=\"#Organization_mah-43da1186bd45a53209a5c5aa849ac823\">See above (Organization/mah-43da1186bd45a53209a5c5aa849ac823)</a></p><p><b>title</b>: TEST PURPOSES ONLY - skilarence</p><h3>Attesters</h3><table class=\"grid\"><tr><td style=\"display: none\">-</td><td><b>Mode</b></td><td><b>Time</b></td></tr><tr><td style=\"display: none\">*</td><td>Official <span style=\"background: LightGoldenRodYellow; margin: 4px; border: 1px solid khaki\"> (<a href=\"http://hl7.org/fhir/R5/codesystem-composition-attestation-mode.html\">Composition Attestation Mode</a>#official)</span></td><td>2022-02-16 13:28:17+0000</td></tr></table></div>"
      },
      "identifier" : [{
        "system" : "https://spor.ema.europa.eu/rmswi/",
        "value" : "b8d5ac467d953d2a9e5deb29f98ba14a"
      }],
      "status" : "final",
      "type" : {
        "coding" : [{
          "system" : "https://spor.ema.europa.eu/rmswi/",
          "code" : "100000155538"
        }],
        "text" : "Package Leaflet"
      },
      "category" : [{
        "coding" : [{
          "system" : "http://hl7.eu/fhir/ig/gravitate-health/CodeSystem/epicategory-cs",
          "code" : "R",
          "display" : "Raw"
        }]
      }],
      "subject" : [{
        "reference" : "MedicinalProductDefinition/mp284ddecbce6fb138483090d5e55bafac"
      }],
      "date" : "2022-02-16T13:28:17Z",
      "author" : [{
        "reference" : "Organization/mah-43da1186bd45a53209a5c5aa849ac823"
      }],
      "title" : "TEST PURPOSES ONLY - skilarence",
      "attester" : [{
        "mode" : {
          "coding" : [{
            "system" : "http://hl7.org/fhir/composition-attestation-mode",
            "code" : "official"
          }]
        },
        "time" : "2022-02-16T13:28:17Z"
      }],
      "section" : [{
        "title" : "B. Package Leaflet",
        "code" : {
          "coding" : [{
            "system" : "https://spor.ema.europa.eu/rmswi/",
            "code" : "100000155538"
          }],
          "text" : "B. PACKAGE LEAFLET"
        },
        "text" : {
          "status" : "additional",
          "div" : "<div xmlns=\"http://www.w3.org/1999/xhtml\">unavailable</div>"
        },
        "emptyReason" : {
          "coding" : [{
            "system" : "http://terminology.hl7.org/CodeSystem/list-empty-reason",
            "code" : "unavailable"
          }]
        },
        "section" : [{
          "title" : "Package leaflet: Information for the user",
          "code" : {
            "coding" : [{
              "system" : "https://spor.ema.europa.eu/rmswi/",
              "code" : "100000155538"
            }],
            "text" : "Package leaflet: Information for the user"
          },
          "text" : {
            "status" : "additional",
            "div" : "<div xmlns=\"http://www.w3.org/1999/xhtml\"><p>Skilarence 30 mg gastro-resistant tablets dimethyl fumarate</p><p><strong>Read all of this leaflet carefully before you start taking this medicine because it contains important information for you.</strong></p><ul><li>Keep this leaflet. You may need to read it again.</li><li>If you have any further questions, ask your doctor or pharmacist.</li><li>Thi s medicine has been prescribed for you only. Do not pass it on to others. It may harm them, even if their signs of illness are the same as yours.</li><li>If you get any side effects, talk to your doctor or pharmacist. This includes any possible side effects not li sted in this leaflet. See section 4.</li></ul></div>"
          }
        },
        {
          "title" : "What is in this leaflet",
          "code" : {
            "coding" : [{
              "system" : "https://spor.ema.europa.eu/rmswi/",
              "code" : "100000155538"
            }],
            "text" : "What is in this leaflet"
          },
          "text" : {
            "status" : "additional",
            "div" : "<div xmlns=\"http://www.w3.org/1999/xhtml\"><p><strong>What is in this leaflet</strong></p><ol><li>What Skilarence is and what it is used for</li><li>What you need to know before you take Skilarence</li><li>How to take Skilarence</li><li>Possible side effects</li><li>How to store Skilarence</li><li>Contents of the pack and other information</li></ol></div>"
          }
        },
        {
          "title" : "1. What skilarence is and what it is used for",
          "code" : {
            "coding" : [{
              "system" : "https://spor.ema.europa.eu/rmswi/",
              "code" : "100000155538"
            }],
            "text" : "1. What skilarence is and what it is used for"
          },
          "text" : {
            "status" : "additional",
            "div" : "<div xmlns=\"http://www.w3.org/1999/xhtml\"><p><strong>What Skilarence is</strong> Skilarence is a medicine that contains the active substance dimethyl fumarate. Dimethyl fumarate works on cells of the immune system (the body&#39;s natural defences). It changes the activity of the immune system by reducing the production of certain substances involved in causing psoriasis.</p><p><strong>What Skilarence is used for</strong> Skilarence tablets are used to treat moderate to severe plaque psoriasis in adults. Psoriasis is a disease causing thickened, inflamed, red areas on the skin, often covered by silvery scales.</p><p>Response to Skilarence can be generally seen as early as week 3 and improves over time. Experience with related products containing dimethyl fumarate shows treatment benefit for at least up to 24 months.</p></div>"
          }
        },
        {
          "title" : "2. What you need to know before you take skilarence",
          "code" : {
            "coding" : [{
              "system" : "https://spor.ema.europa.eu/rmswi/",
              "code" : "100000155538"
            }],
            "text" : "2. What you need to know before you take skilarence"
          },
          "text" : {
            "status" : "additional",
            "div" : "<div xmlns=\"http://www.w3.org/1999/xhtml\"><p><strong>Do not take S kilarence</strong></p><ul><li>if you are allergic to dimethyl fumarate or any of the other ingredients of this medicine (listed in section 6)</li><li>if you have severe problems with your stomach or intestines</li><li>if you have severe liver or kidney problems</li><li>if you are pregnant or breast-feeding</li></ul><p><strong>Warnings and precautions</strong> Talk to your doctor or pharmacist before taking Skilarence.</p><p>Monitoring Skilarence may cause problems with your blood, liver or kidneys. You will have blood and urine tests before treatment and then regularly during your treatment. This is to make sure that you are not getting</p><p>these complications and can continue taking this medicine. Depending on the results of these blood and urine tests, your doctor may decide to increase the dose of Skilarence as per the advised schedule (see section 3), maintain your dose, reduce your dose or stop treatment altogether.</p><p>Infections White blood cells help your body to fight infections. Skilarence may reduce the number of your white blood cells. Talk to your doctor if you think you may have a n infection. Symptoms include fever, pain, aching muscles, headache, loss of appetite and a general feeling of weakness. If you have a serious infection, either before starting treatment with Skilarence or during treatment, your doctor may advise you not to take S kilarence until the infection has resolved.</p><p>Gastrointestinal disorders Tell your doctor if you have or have had problems with your stomach or intestines. Your doctor will advise you on what care you need to take during Skilarence treatment.</p><p><strong>Children and adolescents</strong></p><p>Children and adolescents below the age of 18 years should not take this medicine because it has not been studied in this age group.</p><p><strong>Other medicines and Skilarence</strong> Tell your doctor or pharmacist if you are taking, have recently taken or might take any other medicines.</p><p>In particular, tell your doctor if you are taking the following:</p><ul><li><strong>Dimethyl fumarate or other fumarates.</strong> The active substance in Skilarence, dimethyl fumarate, is also used in other medicines such as tablets, ointments a nd baths. You must avoid using other products that contain fumarates to prevent taking too much.</li><li><strong>Other medicines used to treat psoriasis,</strong> such as methotrexate, retinoids, psoralens, ciclosporin, or other medicines that affect the immune system (such as immunosuppressants or cytostatics). Taking these medicines with Skilarence could increase the risk of side effects on your immune system.</li><li><strong>Other medicines that can affect your kidney function,</strong> such as methotrexate or ciclosporin (used to treat psoriasis), aminoglycosides (used to treat infections), diuretics ( which increase urine), nonsteroidal anti-inflammatory drugs (used to treat pain) or lithium (used for bipolar disease and depression). These medicines taken together with Skilarence could increase the ris k of side effects on your kidneys.</li></ul><p>If you get severe or prolonged diarrhoea due to using Skilarence, other medicines may not work as well as they should. In that case, discuss your diarrhoea with your doctor. I f you are taking a contraceptive medicine (the pill), this is especially important as the effect may be reduced and you may need to use additional methods to prevent pregnancy. See the instructions in the patient leaflet of the contraceptive you are taking.</p><p>If you need a vaccination, talk to your doctor. Certain types of vaccines (live vaccines) may cause infection if used during treatment with Skilarence. Your doctor can advise you what would be best.</p><p><strong>Skilarence with alcohol</strong> Avoid strong alcoholic drinks (more than 50 ml of spirits containing more than 30% alcohol by volume) during treatment with Skilarence, as alcohol can interact with this medicine. This could cause stomach and intestinal problems.</p><p><strong>Pregnancy and breast-feeding</strong> Do not take Skilarence if you are pregnant or trying to become pregnant, as Skilarence may harm your baby. Use effective methods of contraception to avoid becoming pregnant during treatment with Skilarence (see also “Other medicines and Skilarence” above). In case of stomach and intestinal</p><p>problems that could reduce the effectiveness of oral contraceptives, you should consult your doctor who will advise you on additional contraceptive methods. Do not breast-feed during treatment with Skilarence.</p><p><strong>Driving and using machines</strong> Skilarence may have a minor influence on the ability to drive and use machines. You may feel dizzy or tired after taking Skilarence. If you are affected, be careful when d riving or using machines.</p><p><strong>Skilarence contains lactose</strong> If you have been told by your doctor that you have an intolerance to some sugars, contact your doctor before taking this medicinal product.</p><p><strong>Skilarence contains sodium</strong> This medicine contains less than 1 mmol sodium (23 mg) per tablet, that is to say essentially ‘sodium- free’.</p></div>"
          }
        },
        {
          "title" : "3. How to take skilarence",
          "code" : {
            "coding" : [{
              "system" : "https://spor.ema.europa.eu/rmswi/",
              "code" : "100000155538"
            }],
            "text" : "3. How to take skilarence"
          },
          "text" : {
            "status" : "additional",
            "div" : "<div xmlns=\"http://www.w3.org/1999/xhtml\"><p>Always take this medicine exactly as your doctor or pharmacist has told you. Check with your doctor or pharmacist if you are not sure.</p><p><strong>Dose</strong> Your doctor will start your treatment with a low dose of Skilarence by using 30 mg tablets. This helps your body to get used to the medicine and to reduce the risk of side effects, such as stomach and intestinal problems. The dose will be increased with 30 mg every week as shown in the table below. When reaching a dose of 120 mg Skilarence per day, usually from week 4 onwards, you can switch to 120 mg tablets for conveni ence. When switching tablets from 30 mg to 120 mg, please make sure you are using the ri ght tablet and dose.</p><pre><code><span class=\"hljs-attribute\">Treatment\nweek</span>\n</code></pre><pre><code><span class=\"hljs-attribute\">Tablet\nstrength</span>\n</code></pre><p>How many tablets to take during the day (^) Number of tablets per day Total daily Breakfast Lunch Evening meal dose^ 1 30 mg ‒ ‒ 1 1 30 mg 2 30 mg 1 ‒ 1 2 60 mg 3 30 mg 1 1 1 3 90 mg 4 120 mg ‒ ‒ 1 1 120 mg 5 120 mg 1 ‒ 1 2 240 mg 6 120 mg 1 1 1 3 360 mg 7 120 mg 1 1 2 4 480 mg 8 120 mg 2 1 2 5 600 mg 9+ 120 mg 2 2 2 6 720 mg Your doctor will check how well your condition is improving after you start taking Skilarence and will check for side effects. If you have severe side effects after an increase in dose, your doctor may recommend that you temporarily go back to the last dose. If the side effects are not that troublesome, your dose will be increased until your condition is well controlled. You may not need the maximum dose of 720 mg per day as supplied in the table above. After your condition has improved sufficiently, your doctor will consider how to gradually reduce the daily dose of Skilarence to what you need to maintain your improvement.</p><p><strong>Method of administration</strong> Swallow Skilarence tablets whole with liquid. Take your tablet(s) during or immediately after a meal. Do not crush, break, dissolve or chew the tablet, a s they have a special coating to help prevent irritation of your stomach.</p><p><strong>If you take more Skilarence than you should</strong> If you think you have taken too many Skilarence tablets, contact your doctor or pharmacist.</p><p><strong>If you forget to take Skilarence</strong> Do not take a double dose to make up for a forgotten dose. Take the next dose at the usual time and continue taking the medicine exactly as described in this leaflet or exactly as agreed with your doctor. Please ask your doctor or pharmacist if you are not sure.</p><p>If you have any further questions on the use of this medicine, ask your doctor or pharmacist.</p></div>"
          }
        },
        {
          "title" : "4. Possible side effects",
          "code" : {
            "coding" : [{
              "system" : "https://spor.ema.europa.eu/rmswi/",
              "code" : "100000155538"
            }],
            "text" : "4. Possible side effects"
          },
          "text" : {
            "status" : "additional",
            "div" : "<div xmlns=\"http://www.w3.org/1999/xhtml\"><p>Like all medicines, this medicine can cause side effects, although not everybody gets them. Some of these side effects, such as reddening of the face or body (flushing), diarrhoea, stomach problems and nausea usually improve as you continue treatment.</p><p>The most serious side effects that may occur with Skilarence are allergic or hypersensitivity reactions; kidney failure or a kidney disease called Fanconi syndrome; or a severe brain infection called progressive multifocal leukoencephalopathy (PML). It is not known how commonly they occur. For symptoms see below.</p><p>Allergic or hypersensitivity reactions Allergic or hypersensitivity reactions are rare but may be very serious. Reddening of the face or body (flushing) is a very common side effect which may affect more than 1 in 10 people. However, if you become flushed and get any of the following signs:</p><ul><li>wheezing, difficulty breathing or shortness o f breath,</li><li>swelling of the face, lips, mouth or tongue stop taking Skilarence and call a doctor straight away.</li></ul><p>Brain infection called PML Progressive multifocal leukoencephalopathy (PML) is a rare but serious brain infection that can lead to severe disability or death. If you notice new or worsening weakness on one side of the body; clumsiness; changes in vision, thinking or memory; confusion; or personality changes lasting several days, stop taking Skilarence and talk to your doctor straight away.</p><p>Fanconi syndrome Fanconi syndrome is a rare but serious kidney disorder which may occur with Skilarence. If you notice you are passing more urine (or more frequently); are more thirsty and drinking more than normal; your muscles seem weaker you break a bone; o r just have aches and pains, tal k to your doctor as soon as possible so that this can be investigated further.</p><p>Talk to your doctor if you get any of the following side effects.</p><p><strong>Very common</strong> (may affect more than 1 in 10 people)</p><ul><li>decrease in white blood cells called lymphocytes (lymphopenia)</li><li>decrease in all white blood cells (leukopenia)</li><li>reddening of the face or body (flushing)</li><li>diarrhoea</li><li>bloating, stomach pain or stomach cramps</li><li>feeling sick (nausea)</li></ul><p><strong>Common</strong> (may affect up to 1 in 10 people)</p><ul><li>increase in all white blood cells (leukocytosis)</li><li>increase in specific white blood cells called eosinophils</li><li>increase in certain enzymes in the blood (used for checking the health of your liver)</li><li>being sick</li><li>constipation</li><li>gas (flatulence), stomach discomfort, indigestion</li><li>decreased appetite</li><li>headache</li><li>feeling tired</li><li>weakness</li><li>feeling hot</li><li>abnormal sensations of the skin, such as itching, burning, stinging, tickling or tingling</li><li>pink or red blotches on the skin (erythema)</li></ul><p><strong>Uncommon</strong> (may affect up to 1 in 100 people)</p><ul><li>dizziness</li><li>excess protein in the urine (proteinuria)</li><li>increase in serum creatinine (a substance in the blood used for measuring how well your kidneys are working)</li></ul><p><strong>Rare</strong> (may affect up to 1 in 1,000 people)</p><ul><li>allergic skin reaction</li></ul><p><strong>Very rare</strong> (may affect up to 1 in 10,000 people)</p><ul><li>acute lymphatic leukaemia (a type of blood cancer)</li><li>decrease in all types of blood cells (pancytopenia)</li></ul><p><strong>Not known</strong> (frequency cannot be estimated from the available data)</p><ul><li>shingles</li></ul><p><strong>Reporting of side effects</strong> If you get any side effects, talk to your doctor or pharmacist. This includes any possible side effects not listed in this leaflet. You can also report side effects directly via the national reporting system listed in Appendix V. By reporting side effects you can help provide more information on the safety of this medicine.</p></div>"
          }
        },
        {
          "title" : "5. How to store skilarence",
          "code" : {
            "coding" : [{
              "system" : "https://spor.ema.europa.eu/rmswi/",
              "code" : "100000155538"
            }],
            "text" : "5. How to store skilarence"
          },
          "text" : {
            "status" : "additional",
            "div" : "<div xmlns=\"http://www.w3.org/1999/xhtml\"><p>Keep this medicine out of the sight and reach of children.</p><p>Do not use this medicine after the expiry date which is stated on the carton and the blister after “EXP”. The expiry date refers to the last day of that month.</p><p>This medicine does not require any special storage conditions.</p><p>Do not throw away any medicines via wastewater or household waste. Ask your pharmacist how to throw away medicines you no longer use. These measures will help protect the environment.</p></div>"
          }
        },
        {
          "title" : "6. Contents of the pack and other information",
          "code" : {
            "coding" : [{
              "system" : "https://spor.ema.europa.eu/rmswi/",
              "code" : "100000155538"
            }],
            "text" : "6. Contents of the pack and other information"
          },
          "text" : {
            "status" : "additional",
            "div" : "<div xmlns=\"http://www.w3.org/1999/xhtml\"><p><strong>What Skilarence 30 mg contains</strong></p><ul><li>the active substance is dimethyl fumarate. One tablet contains 30 mg dimethyl fumarate.</li><li>the other ingredients are: lactose monohydrate, cellulose microcrystalline, croscarmellose</li></ul><pre><code>sodium, colloidal anhydrous silica, magnesium stearate, methacrylic acid-ethyl acrylate\n<span class=\"hljs-function\"><span class=\"hljs-title\">copolymer</span> <span class=\"hljs-params\">(<span class=\"hljs-number\">1</span>:<span class=\"hljs-number\">1</span>)</span>, <span class=\"hljs-title\">talc</span>, <span class=\"hljs-title\">triethyl</span> <span class=\"hljs-title\">citrate</span>, <span class=\"hljs-title\">titanium</span> <span class=\"hljs-title\">dioxide</span> <span class=\"hljs-params\">(E171)</span> <span class=\"hljs-title\">and</span> <span class=\"hljs-title\">simethicone</span>.</span>\n</code></pre><p><strong>What Skilarence 30 mg looks like and contents of the pack</strong> Skilarence 30 mg is a white, round tablet with a diameter of approximately 6.8 mm. Skilarence 30 mg is available in packs containing 42, 70 and 210 gastro-resistant tablets. Not all pack sizes may be marketed. The tablets are packed in PVC/PVDC-aluminium blisters.</p><p><strong>Marketing Authorisation Holder</strong> Almirall, S.A. Ronda General Mitre, 151 E-08022 Barcelona Spain Tel. +34 93 291 30 00</p><p><strong>Manufacturer</strong> Industrias Farmacéuticas Almirall, S.A. Ctra. de Martorell 41-61 E-08740 Sant Andreu de la Barca, Barcelona Spain</p><p>For any information about this medicine, please contact the local representative of the Marketing Authorisation Holder:</p><p><strong>België/Belgique/Belgien/ Luxembourg/Luxemburg</strong> Almirall N.V., Tél/Tel: +32 (0)2 771 86 37</p><p><strong>Бъл гария</strong> EGIS Pharmaceuticals PLC, Teл.: +359 2 987 60 40</p><p><strong>Česká republika</strong> EGIS Praha, spol. s r. o., Tel: +420 227 129 111</p><p><strong>Danmark/ Norge</strong> / <strong>Sverige</strong> Almirall ApS, Tlf/Tel: +45 70 25 75 7 5</p><p><strong>Deutschland</strong> Almirall Hermal GmbH, Tel: +49 (0)40 72704- 0</p><p><strong>Eesti/ España/ Hrvatska/ Κύπρος/ Latvija/ Lietuva/ Malta/ Slovenija</strong> Almirall, S.A., Tel/Τηλ: +34 93 291 30 00</p><p><strong>Ελλάδα</strong> Galenica A.E., Tηλ: +30 210 52 81 700</p><p><strong>France</strong> Almirall SAS, Tél: +33(0)1 46 46 19 20</p><p><strong>Ireland/ United Kingdom (Northern Ireland)</strong> Almirall, S.A., Tel: +353 (0) 1431 9836</p><p><strong>Ísland</strong> Vistor hf., Sími: +354 535 70 00</p><p><strong>Italia</strong> Almirall SpA, Tel: +39 02 346181</p><p><strong>Magyarország</strong> Egis Gyógyszergyár Zrt., Tel.: +36 1 803 5555</p><p><strong>Nederland</strong> Almirall B.V., Tel: +31 (0)30 799 1155</p><p><strong>Österreich</strong> Almirall GmbH, Tel: +43 (0)1/595 39 60</p><p><strong>Polska</strong> EGIS Polska Sp. z o.o., Tel.: +48 22 417 92 00</p><p><strong>Portugal</strong> Almirall - Produtos Farmacêuticos, Lda., Tel: +351 21 415 57 50</p><p><strong>România</strong> Egis Pharmaceuticals PLC, Tel: +40 21 412 0017</p><p><strong>Slovenská republika</strong> EGIS SLOVAKIA spol. s r.o., Tel: +421 2 32409422</p><p><strong>Suomi/Finland</strong> Orion Pharma, Puh/Tel: +358 10 4261</p><p><strong>This leaflet was last revised in</strong>.</p><p><strong>Other sources of information</strong> Detailed information on this medicine is available on the European Medicines Agency web site: <a href=\"http://www.ema.europa.eu.\">http://www.ema.europa.eu.</a></p></div>"
          }
        }]
      }]
    }
  },
  {
    "fullUrl" : "http://hl7.eu/fhir/ig/gravitate-health/Ingredient/ingredient-for-skilarence-acmedruging3",
    "resource" : {
      "resourceType" : "Ingredient",
      "id" : "ingredient-for-skilarence-acmedruging3",
      "meta" : {
        "profile" : ["http://hl7.org/fhir/uv/emedicinal-product-info/StructureDefinition/Ingredient-uv-epi"]
      },
      "text" : {
        "status" : "generated",
        "div" : "<div xmlns=\"http://www.w3.org/1999/xhtml\"><p><b>Generated Narrative: Ingredient</b><a name=\"ingredient-for-skilarence-acmedruging3\"> </a></p><div style=\"display: inline-block; background-color: #d9e0e7; padding: 6px; margin: 4px; border: 1px solid #8da1b4; border-radius: 5px; line-height: 60%\"><p style=\"margin-bottom: 0px\">Resource Ingredient &quot;ingredient-for-skilarence-acmedruging3&quot; </p><p style=\"margin-bottom: 0px\">Profile: <a href=\"https://build.fhir.org/ig/HL7/emedicinal-product-info//StructureDefinition-Ingredient-uv-epi.html\">Ingredient (ePI)</a></p></div><p><b>identifier</b>: id:\u00a0ETJ7Z6XBU4\u00a0(use:\u00a0OFFICIAL)</p><p><b>status</b>: active</p><p><b>for</b>: </p><ul><li><a href=\"#ManufacturedItemDefinition_mid-6a3c9768548036f502739419bacb2482\">See above (ManufacturedItemDefinition/mid-6a3c9768548036f502739419bacb2482)</a></li><li><a href=\"#MedicinalProductDefinition_mp284ddecbce6fb138483090d5e55bafac\">See above (MedicinalProductDefinition/mp284ddecbce6fb138483090d5e55bafac)</a></li><li><a href=\"#AdministrableProductDefinition_ap-6a3c9768548036f502739419bacb2482\">See above (AdministrableProductDefinition/ap-6a3c9768548036f502739419bacb2482)</a></li></ul><p><b>role</b>: Excipient <span style=\"background: LightGoldenRodYellow; margin: 4px; border: 1px solid khaki\"> (rmswi#100000072082)</span></p><blockquote><p><b>substance</b></p><h3>Codes</h3><table class=\"grid\"><tr><td style=\"display: none\">-</td><td><b>Concept</b></td></tr><tr><td style=\"display: none\">*</td><td>acmedrug-ing3 <span style=\"background: LightGoldenRodYellow; margin: 4px; border: 1px solid khaki\"> (beta#ETJ7Z6XBU4)</span></td></tr></table></blockquote></div>"
      },
      "identifier" : {
        "use" : "official",
        "system" : "https://gsrs.ncats.nih.gov/ginas/app/beta",
        "value" : "ETJ7Z6XBU4"
      },
      "status" : "active",
      "for" : [{
        "reference" : "ManufacturedItemDefinition/mid-6a3c9768548036f502739419bacb2482"
      },
      {
        "reference" : "MedicinalProductDefinition/mp284ddecbce6fb138483090d5e55bafac"
      },
      {
        "reference" : "AdministrableProductDefinition/ap-6a3c9768548036f502739419bacb2482"
      }],
      "role" : {
        "coding" : [{
          "system" : "https://spor.ema.europa.eu/rmswi",
          "code" : "100000072082",
          "display" : "Excipient"
        }]
      },
      "substance" : {
        "code" : {
          "concept" : {
            "coding" : [{
              "system" : "https://gsrs.ncats.nih.gov/ginas/app/beta",
              "code" : "ETJ7Z6XBU4",
              "display" : "acmedrug-ing3"
            }]
          }
        }
      }
    }
  },
  {
    "fullUrl" : "http://hl7.eu/fhir/ig/gravitate-health/Ingredient/ingredient-for-skilarence-acmedruging2",
    "resource" : {
      "resourceType" : "Ingredient",
      "id" : "ingredient-for-skilarence-acmedruging2",
      "meta" : {
        "profile" : ["http://hl7.org/fhir/uv/emedicinal-product-info/StructureDefinition/Ingredient-uv-epi"]
      },
      "text" : {
        "status" : "generated",
        "div" : "<div xmlns=\"http://www.w3.org/1999/xhtml\"><p><b>Generated Narrative: Ingredient</b><a name=\"ingredient-for-skilarence-acmedruging2\"> </a></p><div style=\"display: inline-block; background-color: #d9e0e7; padding: 6px; margin: 4px; border: 1px solid #8da1b4; border-radius: 5px; line-height: 60%\"><p style=\"margin-bottom: 0px\">Resource Ingredient &quot;ingredient-for-skilarence-acmedruging2&quot; </p><p style=\"margin-bottom: 0px\">Profile: <a href=\"https://build.fhir.org/ig/HL7/emedicinal-product-info//StructureDefinition-Ingredient-uv-epi.html\">Ingredient (ePI)</a></p></div><p><b>identifier</b>: id:\u00a015FIX9V2JP\u00a0(use:\u00a0OFFICIAL)</p><p><b>status</b>: active</p><p><b>for</b>: </p><ul><li><a href=\"#ManufacturedItemDefinition_mid-6a3c9768548036f502739419bacb2482\">See above (ManufacturedItemDefinition/mid-6a3c9768548036f502739419bacb2482)</a></li><li><a href=\"#MedicinalProductDefinition_mp284ddecbce6fb138483090d5e55bafac\">See above (MedicinalProductDefinition/mp284ddecbce6fb138483090d5e55bafac)</a></li><li><a href=\"#AdministrableProductDefinition_ap-6a3c9768548036f502739419bacb2482\">See above (AdministrableProductDefinition/ap-6a3c9768548036f502739419bacb2482)</a></li></ul><p><b>role</b>: Excipient <span style=\"background: LightGoldenRodYellow; margin: 4px; border: 1px solid khaki\"> (rmswi#100000072082)</span></p><blockquote><p><b>substance</b></p><h3>Codes</h3><table class=\"grid\"><tr><td style=\"display: none\">-</td><td><b>Concept</b></td></tr><tr><td style=\"display: none\">*</td><td>acmedrug-ing2 <span style=\"background: LightGoldenRodYellow; margin: 4px; border: 1px solid khaki\"> (beta#15FIX9V2JP)</span></td></tr></table></blockquote></div>"
      },
      "identifier" : {
        "use" : "official",
        "system" : "https://gsrs.ncats.nih.gov/ginas/app/beta",
        "value" : "15FIX9V2JP"
      },
      "status" : "active",
      "for" : [{
        "reference" : "ManufacturedItemDefinition/mid-6a3c9768548036f502739419bacb2482"
      },
      {
        "reference" : "MedicinalProductDefinition/mp284ddecbce6fb138483090d5e55bafac"
      },
      {
        "reference" : "AdministrableProductDefinition/ap-6a3c9768548036f502739419bacb2482"
      }],
      "role" : {
        "coding" : [{
          "system" : "https://spor.ema.europa.eu/rmswi",
          "code" : "100000072082",
          "display" : "Excipient"
        }]
      },
      "substance" : {
        "code" : {
          "concept" : {
            "coding" : [{
              "system" : "https://gsrs.ncats.nih.gov/ginas/app/beta",
              "code" : "15FIX9V2JP",
              "display" : "acmedrug-ing2"
            }]
          }
        }
      }
    }
  },
  {
    "fullUrl" : "http://hl7.eu/fhir/ig/gravitate-health/Ingredient/ingredient-for-skilarence-dimethylfumarate",
    "resource" : {
      "resourceType" : "Ingredient",
      "id" : "ingredient-for-skilarence-dimethylfumarate",
      "meta" : {
        "profile" : ["http://hl7.org/fhir/uv/emedicinal-product-info/StructureDefinition/Ingredient-uv-epi"]
      },
      "text" : {
        "status" : "generated",
        "div" : "<div xmlns=\"http://www.w3.org/1999/xhtml\"><p><b>Generated Narrative: Ingredient</b><a name=\"ingredient-for-skilarence-dimethylfumarate\"> </a></p><div style=\"display: inline-block; background-color: #d9e0e7; padding: 6px; margin: 4px; border: 1px solid #8da1b4; border-radius: 5px; line-height: 60%\"><p style=\"margin-bottom: 0px\">Resource Ingredient &quot;ingredient-for-skilarence-dimethylfumarate&quot; </p><p style=\"margin-bottom: 0px\">Profile: <a href=\"https://build.fhir.org/ig/HL7/emedicinal-product-info//StructureDefinition-Ingredient-uv-epi.html\">Ingredient (ePI)</a></p></div><p><b>identifier</b>: id:\u00a0FO2303MNI2\u00a0(use:\u00a0OFFICIAL)</p><p><b>status</b>: active</p><p><b>for</b>: </p><ul><li><a href=\"#ManufacturedItemDefinition_mid-6a3c9768548036f502739419bacb2482\">See above (ManufacturedItemDefinition/mid-6a3c9768548036f502739419bacb2482)</a></li><li><a href=\"#MedicinalProductDefinition_mp284ddecbce6fb138483090d5e55bafac\">See above (MedicinalProductDefinition/mp284ddecbce6fb138483090d5e55bafac)</a></li><li><a href=\"#AdministrableProductDefinition_ap-6a3c9768548036f502739419bacb2482\">See above (AdministrableProductDefinition/ap-6a3c9768548036f502739419bacb2482)</a></li></ul><p><b>role</b>: active <span style=\"background: LightGoldenRodYellow; margin: 4px; border: 1px solid khaki\"> (rmswi#72072)</span></p><blockquote><p><b>substance</b></p><h3>Codes</h3><table class=\"grid\"><tr><td style=\"display: none\">-</td><td><b>Concept</b></td></tr><tr><td style=\"display: none\">*</td><td>DIMETHYL FUMARATE <span style=\"background: LightGoldenRodYellow; margin: 4px; border: 1px solid khaki\"> (beta#FO2303MNI2)</span></td></tr></table><h3>Strengths</h3><table class=\"grid\"><tr><td style=\"display: none\">-</td><td><b>Presentation[x]</b></td><td><b>Basis</b></td></tr><tr><td style=\"display: none\">*</td><td>120 mg<span style=\"background: LightGoldenRodYellow\"> (Details: UCUM code mg = 'mg')</span></td><td>active ingredient - basis of strength <span style=\"background: LightGoldenRodYellow; margin: 4px; border: 1px solid khaki\"> (<a href=\"http://terminology.hl7.org/5.3.0/CodeSystem-v3-RoleClass.html\">RoleClass</a>#ACTIB)</span></td></tr></table></blockquote></div>"
      },
      "identifier" : {
        "use" : "official",
        "system" : "https://gsrs.ncats.nih.gov/ginas/app/beta",
        "value" : "FO2303MNI2"
      },
      "status" : "active",
      "for" : [{
        "reference" : "ManufacturedItemDefinition/mid-6a3c9768548036f502739419bacb2482"
      },
      {
        "reference" : "MedicinalProductDefinition/mp284ddecbce6fb138483090d5e55bafac"
      },
      {
        "reference" : "AdministrableProductDefinition/ap-6a3c9768548036f502739419bacb2482"
      }],
      "role" : {
        "coding" : [{
          "system" : "https://spor.ema.europa.eu/rmswi",
          "code" : "72072",
          "display" : "active"
        }]
      },
      "substance" : {
        "code" : {
          "concept" : {
            "coding" : [{
              "system" : "https://gsrs.ncats.nih.gov/ginas/app/beta",
              "code" : "FO2303MNI2",
              "display" : "DIMETHYL FUMARATE"
            }]
          }
        },
        "strength" : [{
          "presentationQuantity" : {
            "value" : 120,
            "system" : "http://unitsofmeasure.org",
            "code" : "mg"
          },
          "basis" : {
            "coding" : [{
              "system" : "http://terminology.hl7.org/CodeSystem/v3-RoleClass",
              "code" : "ACTIB",
              "display" : "active ingredient - basis of strength"
            }]
          }
        }]
      }
    }
  },
  {
    "fullUrl" : "http://hl7.eu/fhir/ig/gravitate-health/SubstanceDefinition/substance-dimethylfumarate",
    "resource" : {
      "resourceType" : "SubstanceDefinition",
      "id" : "substance-dimethylfumarate",
      "meta" : {
        "profile" : ["http://hl7.org/fhir/uv/emedicinal-product-info/StructureDefinition/SubstanceDefinition-uv-epi"]
      },
      "text" : {
        "status" : "generated",
        "div" : "<div xmlns=\"http://www.w3.org/1999/xhtml\"><p><b>Generated Narrative: SubstanceDefinition</b><a name=\"substance-dimethylfumarate\"> </a></p><div style=\"display: inline-block; background-color: #d9e0e7; padding: 6px; margin: 4px; border: 1px solid #8da1b4; border-radius: 5px; line-height: 60%\"><p style=\"margin-bottom: 0px\">Resource SubstanceDefinition &quot;substance-dimethylfumarate&quot; </p><p style=\"margin-bottom: 0px\">Profile: <a href=\"https://build.fhir.org/ig/HL7/emedicinal-product-info//StructureDefinition-SubstanceDefinition-uv-epi.html\">SubstanceDefinition (ePI)</a></p></div><p><b>identifier</b>: id:\u00a0FO2303MNI2\u00a0(use:\u00a0OFFICIAL)</p><p><b>version</b>: 1</p><p><b>status</b>: Active <span style=\"background: LightGoldenRodYellow; margin: 4px; border: 1px solid khaki\"> (<a href=\"http://hl7.org/fhir/R5/codesystem-publication-status.html\">PublicationStatus</a>#active)</span></p><p><b>description</b>: White to off-white, biconvex, and oval-shaped with a heart debossed on one side and the number 2771 engraved on the other side.</p><p><b>manufacturer</b>: <a href=\"#Organization_mah-43da1186bd45a53209a5c5aa849ac823\">See above (Organization/mah-43da1186bd45a53209a5c5aa849ac823)</a></p><h3>MolecularWeights</h3><table class=\"grid\"><tr><td style=\"display: none\">-</td><td><b>Type</b></td><td><b>Amount</b></td></tr><tr><td style=\"display: none\">*</td><td>exact <span style=\"background: LightGoldenRodYellow; margin: 4px; border: 1px solid khaki\"> ()</span></td><td>144.13</td></tr></table><h3>Structures</h3><table class=\"grid\"><tr><td style=\"display: none\">-</td><td><b>MolecularFormula</b></td></tr><tr><td style=\"display: none\">*</td><td>C6H8O4</td></tr></table><h3>Names</h3><table class=\"grid\"><tr><td style=\"display: none\">-</td><td><b>Name</b></td><td><b>Type</b></td></tr><tr><td style=\"display: none\">*</td><td>2-BUTENEDIOIC ACID, (2E)-, DIMETHYL ESTER</td><td>Chemical Name <span style=\"background: LightGoldenRodYellow; margin: 4px; border: 1px solid khaki\"> (#x)</span></td></tr></table></div>"
      },
      "identifier" : [{
        "use" : "official",
        "system" : "https://gsrs.ncats.nih.gov/ginas/app/beta/",
        "value" : "FO2303MNI2"
      }],
      "version" : "1",
      "status" : {
        "coding" : [{
          "system" : "http://hl7.org/fhir/publication-status",
          "code" : "active"
        }]
      },
      "description" : "White to off-white, biconvex, and oval-shaped with a heart debossed on one side and the number 2771 engraved on the other side.",
      "manufacturer" : [{
        "reference" : "Organization/mah-43da1186bd45a53209a5c5aa849ac823"
      }],
      "molecularWeight" : [{
        "type" : {
          "text" : "exact"
        },
        "amount" : {
          "value" : 144.13
        }
      }],
      "structure" : {
        "molecularFormula" : "C6H8O4"
      },
      "name" : [{
        "name" : "2-BUTENEDIOIC ACID, (2E)-, DIMETHYL ESTER",
        "type" : {
          "coding" : [{
            "system" : "https://gsrs.ncats.nih.gov/ginas/app/beta/",
            "code" : "x",
            "display" : "Chemical Name"
          }]
        }
      }]
    }
  },
  {
    "fullUrl" : "http://hl7.eu/fhir/ig/gravitate-health/AdministrableProductDefinition/ap-6a3c9768548036f502739419bacb2482",
    "resource" : {
      "resourceType" : "AdministrableProductDefinition",
      "id" : "ap-6a3c9768548036f502739419bacb2482",
      "meta" : {
        "profile" : ["http://hl7.org/fhir/uv/emedicinal-product-info/StructureDefinition/AdministrableProductDefinition-uv-epi"]
      },
      "text" : {
        "status" : "generated",
        "div" : "<div xmlns=\"http://www.w3.org/1999/xhtml\"><p><b>Generated Narrative: AdministrableProductDefinition</b><a name=\"ap-6a3c9768548036f502739419bacb2482\"> </a></p><div style=\"display: inline-block; background-color: #d9e0e7; padding: 6px; margin: 4px; border: 1px solid #8da1b4; border-radius: 5px; line-height: 60%\"><p style=\"margin-bottom: 0px\">Resource AdministrableProductDefinition &quot;ap-6a3c9768548036f502739419bacb2482&quot; </p><p style=\"margin-bottom: 0px\">Profile: <a href=\"https://build.fhir.org/ig/HL7/emedicinal-product-info//StructureDefinition-AdministrableProductDefinition-uv-epi.html\">AdministrableProductDefinition (ePI)</a></p></div><p><b>identifier</b>: id:\u00a0xx</p><p><b>status</b>: active</p><p><b>formOf</b>: <a href=\"#MedicinalProductDefinition_mp284ddecbce6fb138483090d5e55bafac\">See above (MedicinalProductDefinition/mp284ddecbce6fb138483090d5e55bafac)</a></p><p><b>administrableDoseForm</b>: Tablet <span style=\"background: LightGoldenRodYellow; margin: 4px; border: 1px solid khaki\"> (rmswi#100000073664)</span></p><p><b>unitOfPresentation</b>: Tablet <span style=\"background: LightGoldenRodYellow; margin: 4px; border: 1px solid khaki\"> (rmswi#200000002152)</span></p><p><b>producedFrom</b>: <a href=\"#ManufacturedItemDefinition_mid-6a3c9768548036f502739419bacb2482\">See above (ManufacturedItemDefinition/mid-6a3c9768548036f502739419bacb2482)</a></p><blockquote><p><b>routeOfAdministration</b></p><p><b>code</b>: Oral use <span style=\"background: LightGoldenRodYellow; margin: 4px; border: 1px solid khaki\"> (rmswi#100000073619)</span></p><h3>TargetSpecies</h3><table class=\"grid\"><tr><td style=\"display: none\">-</td><td><b>Code</b></td></tr><tr><td style=\"display: none\">*</td><td>Human <span style=\"background: LightGoldenRodYellow; margin: 4px; border: 1px solid khaki\"> (rmswi#100000109093)</span></td></tr></table></blockquote></div>"
      },
      "identifier" : [{
        "system" : "https://spor.ema.europa.eu/pmswi",
        "value" : "xx"
      }],
      "status" : "active",
      "formOf" : [{
        "reference" : "MedicinalProductDefinition/mp284ddecbce6fb138483090d5e55bafac"
      }],
      "administrableDoseForm" : {
        "coding" : [{
          "system" : "https://spor.ema.europa.eu/rmswi",
          "code" : "100000073664",
          "display" : "Tablet"
        }]
      },
      "unitOfPresentation" : {
        "coding" : [{
          "system" : "https://spor.ema.europa.eu/rmswi",
          "code" : "200000002152",
          "display" : "Tablet"
        }]
      },
      "producedFrom" : [{
        "reference" : "ManufacturedItemDefinition/mid-6a3c9768548036f502739419bacb2482"
      }],
      "routeOfAdministration" : [{
        "code" : {
          "coding" : [{
            "system" : "https://spor.ema.europa.eu/rmswi",
            "code" : "100000073619",
            "display" : "Oral use"
          }]
        },
        "targetSpecies" : [{
          "code" : {
            "coding" : [{
              "system" : "https://spor.ema.europa.eu/rmswi",
              "code" : "100000109093",
              "display" : "Human"
            }]
          }
        }]
      }]
    }
  },
  {
    "fullUrl" : "http://hl7.eu/fhir/ig/gravitate-health/RegulatedAuthorization/authorization956f4a99ddff9adda9cb7a361bf8f827",
    "resource" : {
      "resourceType" : "RegulatedAuthorization",
      "id" : "authorization956f4a99ddff9adda9cb7a361bf8f827",
      "meta" : {
        "profile" : ["http://hl7.org/fhir/uv/emedicinal-product-info/StructureDefinition/RegulatedAuthorization-uv-epi"]
      },
      "text" : {
        "status" : "generated",
        "div" : "<div xmlns=\"http://www.w3.org/1999/xhtml\"><p><b>Generated Narrative: RegulatedAuthorization</b><a name=\"authorization956f4a99ddff9adda9cb7a361bf8f827\"> </a></p><div style=\"display: inline-block; background-color: #d9e0e7; padding: 6px; margin: 4px; border: 1px solid #8da1b4; border-radius: 5px; line-height: 60%\"><p style=\"margin-bottom: 0px\">Resource RegulatedAuthorization &quot;authorization956f4a99ddff9adda9cb7a361bf8f827&quot; </p><p style=\"margin-bottom: 0px\">Profile: <a href=\"https://build.fhir.org/ig/HL7/emedicinal-product-info//StructureDefinition-RegulatedAuthorization-uv-epi.html\">RegulatedAuthorization (ePI)</a></p></div><p><b>identifier</b>: id:\u00a0EU/1/17/1201/002\u00a0(use:\u00a0OFFICIAL)</p><p><b>subject</b>: <a href=\"#MedicinalProductDefinition_mp284ddecbce6fb138483090d5e55bafac\">See above (MedicinalProductDefinition/mp284ddecbce6fb138483090d5e55bafac)</a></p><p><b>type</b>: Marketing Authorisation <span style=\"background: LightGoldenRodYellow; margin: 4px; border: 1px solid khaki\"> (rmswi#220000000061)</span></p><p><b>status</b>: Active <span style=\"background: LightGoldenRodYellow; margin: 4px; border: 1px solid khaki\"> (<a href=\"http://hl7.org/fhir/R5/codesystem-publication-status.html\">PublicationStatus</a>#active)</span></p><p><b>statusDate</b>: 2015-02-07 13:28:17+0000</p><p><b>holder</b>: <a href=\"#Organization_mah-43da1186bd45a53209a5c5aa849ac823\">See above (Organization/mah-43da1186bd45a53209a5c5aa849ac823)</a></p></div>"
      },
      "identifier" : [{
        "use" : "official",
        "system" : "https://spor.ema.europa.eu/pmswi",
        "value" : "EU/1/17/1201/002"
      }],
      "subject" : [{
        "reference" : "MedicinalProductDefinition/mp284ddecbce6fb138483090d5e55bafac"
      }],
      "type" : {
        "coding" : [{
          "system" : "https://spor.ema.europa.eu/rmswi",
          "code" : "220000000061",
          "display" : "Marketing Authorisation"
        }]
      },
      "status" : {
        "coding" : [{
          "system" : "http://hl7.org/fhir/publication-status",
          "code" : "active",
          "display" : "Active"
        }]
      },
      "statusDate" : "2015-02-07T13:28:17Z",
      "holder" : {
        "reference" : "Organization/mah-43da1186bd45a53209a5c5aa849ac823"
      }
    }
  },
  {
    "fullUrl" : "http://hl7.eu/fhir/ig/gravitate-health/Organization/mah-43da1186bd45a53209a5c5aa849ac823",
    "resource" : {
      "resourceType" : "Organization",
      "id" : "mah-43da1186bd45a53209a5c5aa849ac823",
      "meta" : {
        "profile" : ["http://hl7.org/fhir/uv/emedicinal-product-info/StructureDefinition/Organization-uv-epi"]
      },
      "text" : {
        "status" : "generated",
        "div" : "<div xmlns=\"http://www.w3.org/1999/xhtml\"><p><b>Generated Narrative: Organization</b><a name=\"mah-43da1186bd45a53209a5c5aa849ac823\"> </a></p><div style=\"display: inline-block; background-color: #d9e0e7; padding: 6px; margin: 4px; border: 1px solid #8da1b4; border-radius: 5px; line-height: 60%\"><p style=\"margin-bottom: 0px\">Resource Organization &quot;mah-43da1186bd45a53209a5c5aa849ac823&quot; </p><p style=\"margin-bottom: 0px\">Profile: <a href=\"https://build.fhir.org/ig/HL7/emedicinal-product-info//StructureDefinition-Organization-uv-epi.html\">Organization (ePI)</a></p></div><p><b>identifier</b>: id:\u00a0ORG-100000789\u00a0(use:\u00a0OFFICIAL)</p><p><b>active</b>: true</p><p><b>type</b>: Marketing authorisation holder <span style=\"background: LightGoldenRodYellow; margin: 4px; border: 1px solid khaki\"> (rmswi#220000000034)</span></p><p><b>name</b>: ACME industry</p><h3>Contacts</h3><table class=\"grid\"><tr><td style=\"display: none\">-</td><td><b>Address</b></td></tr><tr><td style=\"display: none\">*</td><td>street x and y Paris FR(WORK)</td></tr></table></div>"
      },
      "identifier" : [{
        "use" : "official",
        "system" : "https://spor.ema.europa.eu/omswi",
        "value" : "ORG-100000789"
      }],
      "active" : true,
      "type" : [{
        "coding" : [{
          "system" : "https://spor.ema.europa.eu/rmswi",
          "code" : "220000000034",
          "display" : "Marketing authorisation holder"
        }]
      }],
      "name" : "ACME industry",
      "contact" : [{
        "address" : {
          "use" : "work",
          "type" : "physical",
          "text" : "street x and y Paris FR",
          "line" : ["street x and y"],
          "city" : "Paris",
          "country" : "FR"
        }
      }]
    }
  },
  {
    "fullUrl" : "http://hl7.eu/fhir/ig/gravitate-health/PackagedProductDefinition/ppd-6a3c9768548036f502739419bacb2482",
    "resource" : {
      "resourceType" : "PackagedProductDefinition",
      "id" : "ppd-6a3c9768548036f502739419bacb2482",
      "meta" : {
        "profile" : ["http://hl7.org/fhir/uv/emedicinal-product-info/StructureDefinition/PackagedProductDefinition-uv-epi"]
      },
      "text" : {
        "status" : "generated",
        "div" : "<div xmlns=\"http://www.w3.org/1999/xhtml\"><p><b>Generated Narrative: PackagedProductDefinition</b><a name=\"ppd-6a3c9768548036f502739419bacb2482\"> </a></p><div style=\"display: inline-block; background-color: #d9e0e7; padding: 6px; margin: 4px; border: 1px solid #8da1b4; border-radius: 5px; line-height: 60%\"><p style=\"margin-bottom: 0px\">Resource PackagedProductDefinition &quot;ppd-6a3c9768548036f502739419bacb2482&quot; </p><p style=\"margin-bottom: 0px\">Profile: <a href=\"https://build.fhir.org/ig/HL7/emedicinal-product-info//StructureDefinition-PackagedProductDefinition-uv-epi.html\">PackagedProductDefinition (ePI)</a></p></div><p><b>identifier</b>: id:\u00a0EU/1/17/1201/002\u00a0(use:\u00a0OFFICIAL)</p><p><b>name</b>: Skilarence 120 mg gastro-resistant tablets</p><p><b>type</b>: Chemical Medicinal Product <span style=\"background: LightGoldenRodYellow; margin: 4px; border: 1px solid khaki\"> (rmswi#100000155527)</span></p><p><b>packageFor</b>: <a href=\"#MedicinalProductDefinition_mp284ddecbce6fb138483090d5e55bafac\">See above (MedicinalProductDefinition/mp284ddecbce6fb138483090d5e55bafac)</a></p><p><b>status</b>: Active <span style=\"background: LightGoldenRodYellow; margin: 4px; border: 1px solid khaki\"> (<a href=\"http://hl7.org/fhir/R5/codesystem-publication-status.html\">PublicationStatus</a>#active)</span></p><p><b>statusDate</b>: 2015-02-07 13:28:17+0000</p><p><b>containedItemQuantity</b>: 120 mg<span style=\"background: LightGoldenRodYellow\"> (Details: UCUM code mg = 'mg')</span></p><blockquote><p><b>packaging</b></p><p><b>type</b>: Box <span style=\"background: LightGoldenRodYellow; margin: 4px; border: 1px solid khaki\"> (rmswi#100000073498)</span></p><p><b>quantity</b>: 1</p><p><b>material</b>: Cardboard <span style=\"background: LightGoldenRodYellow; margin: 4px; border: 1px solid khaki\"> (rmswi#200000003529)</span></p><blockquote><p><b>packaging</b></p><p><b>identifier</b>: id:\u00a0123456</p><p><b>type</b>: Blister <span style=\"background: LightGoldenRodYellow; margin: 4px; border: 1px solid khaki\"> (rmswi#100000073496)</span></p><p><b>quantity</b>: 40</p><p><b>material</b>: PolyVinyl Chloride <span style=\"background: LightGoldenRodYellow; margin: 4px; border: 1px solid khaki\"> (rmswi#200000003222)</span></p><blockquote><p><b>containedItem</b></p></blockquote></blockquote></blockquote></div>"
      },
      "identifier" : [{
        "use" : "official",
        "system" : "https://spor.ema.europa.eu/pmswi",
        "value" : "EU/1/17/1201/002"
      }],
      "name" : "Skilarence 120 mg gastro-resistant tablets",
      "type" : {
        "coding" : [{
          "system" : "https://spor.ema.europa.eu/rmswi",
          "code" : "100000155527",
          "display" : "Chemical Medicinal Product"
        }]
      },
      "packageFor" : [{
        "reference" : "MedicinalProductDefinition/mp284ddecbce6fb138483090d5e55bafac"
      }],
      "status" : {
        "coding" : [{
          "system" : "http://hl7.org/fhir/publication-status",
          "code" : "active",
          "display" : "Active"
        }]
      },
      "statusDate" : "2015-02-07T13:28:17Z",
      "containedItemQuantity" : [{
        "value" : 120,
        "system" : "http://unitsofmeasure.org",
        "code" : "mg"
      }],
      "packaging" : {
        "type" : {
          "coding" : [{
            "system" : "https://spor.ema.europa.eu/rmswi",
            "code" : "100000073498",
            "display" : "Box"
          }]
        },
        "quantity" : 1,
        "material" : [{
          "coding" : [{
            "system" : "https://spor.ema.europa.eu/rmswi",
            "code" : "200000003529",
            "display" : "Cardboard"
          }]
        }],
        "packaging" : [{
          "identifier" : [{
            "system" : "https://spor.ema.europa.eu/pmswi",
            "value" : "123456"
          }],
          "type" : {
            "coding" : [{
              "system" : "https://spor.ema.europa.eu/rmswi",
              "code" : "100000073496",
              "display" : "Blister"
            }]
          },
          "quantity" : 40,
          "material" : [{
            "coding" : [{
              "system" : "https://spor.ema.europa.eu/rmswi",
              "code" : "200000003222",
              "display" : "PolyVinyl Chloride"
            }]
          }],
          "containedItem" : [{
            "item" : {
              "reference" : {
                "reference" : "ManufacturedItemDefinition/mid-6a3c9768548036f502739419bacb2482"
              }
            }
          }]
        }]
      }
    }
  },
  {
    "fullUrl" : "http://hl7.eu/fhir/ig/gravitate-health/MedicinalProductDefinition/mp284ddecbce6fb138483090d5e55bafac",
    "resource" : {
      "resourceType" : "MedicinalProductDefinition",
      "id" : "mp284ddecbce6fb138483090d5e55bafac",
      "meta" : {
        "profile" : ["http://hl7.org/fhir/uv/emedicinal-product-info/StructureDefinition/MedicinalProductDefinition-uv-epi"]
      },
      "text" : {
        "status" : "generated",
        "div" : "<div xmlns=\"http://www.w3.org/1999/xhtml\"><p><b>Generated Narrative: MedicinalProductDefinition</b><a name=\"mp284ddecbce6fb138483090d5e55bafac\"> </a></p><div style=\"display: inline-block; background-color: #d9e0e7; padding: 6px; margin: 4px; border: 1px solid #8da1b4; border-radius: 5px; line-height: 60%\"><p style=\"margin-bottom: 0px\">Resource MedicinalProductDefinition &quot;mp284ddecbce6fb138483090d5e55bafac&quot; </p><p style=\"margin-bottom: 0px\">Profile: <a href=\"https://build.fhir.org/ig/HL7/emedicinal-product-info//StructureDefinition-MedicinalProductDefinition-uv-epi.html\">MedicinalProductDefinition (ePI)</a></p></div><p><b>identifier</b>: id:\u00a04471bb15-7f52-4fcd-b615-8674ce6eb91g, id:\u00a0EU/1/17/1201/002</p><p><b>type</b>: Medicinal Product <span style=\"background: LightGoldenRodYellow; margin: 4px; border: 1px solid khaki\"> (<a href=\"http://hl7.org/fhir/R5/codesystem-medicinal-product-type.html\">Medicinal Product Type</a>#MedicinalProduct)</span></p><p><b>domain</b>: Human use <span style=\"background: LightGoldenRodYellow; margin: 4px; border: 1px solid khaki\"> (<a href=\"http://hl7.org/fhir/R5/codesystem-medicinal-product-domain.html\">Medicinal Product Domain</a>#Human)</span></p><p><b>status</b>: active <span style=\"background: LightGoldenRodYellow; margin: 4px; border: 1px solid khaki\"> (<a href=\"http://hl7.org/fhir/R5/codesystem-publication-status.html\">PublicationStatus</a>#active)</span></p><p><b>legalStatusOfSupply</b>: Medicinal product subject to medical prescription <span style=\"background: LightGoldenRodYellow; margin: 4px; border: 1px solid khaki\"> (rmswi#100000072084)</span></p><blockquote><p><b>name</b></p><p><b>productName</b>: Skilarence 120 mg gastro-resistant tablets</p><p><b>type</b>: Full name <span style=\"background: LightGoldenRodYellow; margin: 4px; border: 1px solid khaki\"> (220000000000#220000000001)</span></p><blockquote><p><b>part</b></p><p><b>part</b>: Skilarence</p><p><b>type</b>: Invented name part <span style=\"background: LightGoldenRodYellow; margin: 4px; border: 1px solid khaki\"> (220000000000#220000000002)</span></p></blockquote><blockquote><p><b>part</b></p><p><b>part</b>: dimethyl fumarate</p><p><b>type</b>: Scientific name part <span style=\"background: LightGoldenRodYellow; margin: 4px; border: 1px solid khaki\"> (220000000000#220000000003)</span></p></blockquote><blockquote><p><b>part</b></p><p><b>part</b>: 120 mg</p><p><b>type</b>: Strength part <span style=\"background: LightGoldenRodYellow; margin: 4px; border: 1px solid khaki\"> (220000000000#220000000004)</span></p></blockquote><blockquote><p><b>part</b></p><p><b>part</b>: tablet</p><p><b>type</b>: Pharmaceutical dose form part <span style=\"background: LightGoldenRodYellow; margin: 4px; border: 1px solid khaki\"> (220000000000#220000000005)</span></p></blockquote><h3>Usages</h3><table class=\"grid\"><tr><td style=\"display: none\">-</td><td><b>Country</b></td><td><b>Jurisdiction</b></td><td><b>Language</b></td></tr><tr><td style=\"display: none\">*</td><td>United Kingdom <span style=\"background: LightGoldenRodYellow; margin: 4px; border: 1px solid khaki\"> (<a href=\"http://terminology.hl7.org/5.3.0/CodeSystem-ISO3166Part1.html\">ISO 3166-1 Codes for the representation of names of countries and their subdivisions — Part 1: Country code</a>#GBR)</span></td><td>United Kingdom <span style=\"background: LightGoldenRodYellow; margin: 4px; border: 1px solid khaki\"> (<a href=\"http://terminology.hl7.org/5.3.0/CodeSystem-ISO3166Part1.html\">ISO 3166-1 Codes for the representation of names of countries and their subdivisions — Part 1: Country code</a>#GBR)</span></td><td>English <span style=\"background: LightGoldenRodYellow; margin: 4px; border: 1px solid khaki\"> (<a href=\"http://terminology.hl7.org/5.3.0/CodeSystem-v3-ietf3066.html\">Tags for the Identification of Languages</a>#en)</span></td></tr></table></blockquote></div>"
      },
      "identifier" : [{
        "system" : "https://www.who-umc.org/phpid",
        "value" : "4471bb15-7f52-4fcd-b615-8674ce6eb91g"
      },
      {
        "system" : "https://spor.ema.europa.eu/pmswi",
        "value" : "EU/1/17/1201/002"
      }],
      "type" : {
        "coding" : [{
          "system" : "http://hl7.org/fhir/medicinal-product-type",
          "code" : "MedicinalProduct",
          "display" : "Medicinal Product"
        }]
      },
      "domain" : {
        "coding" : [{
          "system" : "http://hl7.org/fhir/medicinal-product-domain",
          "code" : "Human",
          "display" : "Human use"
        }]
      },
      "status" : {
        "coding" : [{
          "system" : "http://hl7.org/fhir/publication-status",
          "code" : "active",
          "display" : "active"
        }]
      },
      "legalStatusOfSupply" : {
        "coding" : [{
          "system" : "https://spor.ema.europa.eu/rmswi",
          "code" : "100000072084",
          "display" : "Medicinal product subject to medical prescription"
        }]
      },
      "name" : [{
        "productName" : "Skilarence 120 mg gastro-resistant tablets",
        "type" : {
          "coding" : [{
            "system" : "https://spor.ema.europa.eu/lists/220000000000",
            "code" : "220000000001",
            "display" : "Full name"
          }]
        },
        "part" : [{
          "part" : "Skilarence",
          "type" : {
            "coding" : [{
              "system" : "https://spor.ema.europa.eu/lists/220000000000",
              "code" : "220000000002",
              "display" : "Invented name part"
            }]
          }
        },
        {
          "part" : "dimethyl fumarate",
          "type" : {
            "coding" : [{
              "system" : "https://spor.ema.europa.eu/lists/220000000000",
              "code" : "220000000003",
              "display" : "Scientific name part"
            }]
          }
        },
        {
          "part" : "120 mg",
          "type" : {
            "coding" : [{
              "system" : "https://spor.ema.europa.eu/lists/220000000000",
              "code" : "220000000004",
              "display" : "Strength part"
            }]
          }
        },
        {
          "part" : "tablet",
          "type" : {
            "coding" : [{
              "system" : "https://spor.ema.europa.eu/lists/220000000000",
              "code" : "220000000005",
              "display" : "Pharmaceutical dose form part"
            }]
          }
        }],
        "usage" : [{
          "country" : {
            "coding" : [{
              "system" : "urn:iso:std:iso:3166",
              "code" : "GBR",
              "display" : "United Kingdom"
            }]
          },
          "jurisdiction" : {
            "coding" : [{
              "system" : "urn:iso:std:iso:3166",
              "code" : "GBR",
              "display" : "United Kingdom"
            }]
          },
          "language" : {
            "coding" : [{
              "system" : "urn:ietf:bcp:47",
              "code" : "en",
              "display" : "English"
            }]
          }
        }]
      }]
    }
  },
  {
    "fullUrl" : "http://hl7.eu/fhir/ig/gravitate-health/ManufacturedItemDefinition/mid-6a3c9768548036f502739419bacb2482",
    "resource" : {
      "resourceType" : "ManufacturedItemDefinition",
      "id" : "mid-6a3c9768548036f502739419bacb2482",
      "meta" : {
        "profile" : ["http://hl7.org/fhir/uv/emedicinal-product-info/StructureDefinition/ManufacturedItemDefinition-uv-epi"]
      },
      "text" : {
        "status" : "generated",
        "div" : "<div xmlns=\"http://www.w3.org/1999/xhtml\"><p><b>Generated Narrative: ManufacturedItemDefinition</b><a name=\"mid-6a3c9768548036f502739419bacb2482\"> </a></p><div style=\"display: inline-block; background-color: #d9e0e7; padding: 6px; margin: 4px; border: 1px solid #8da1b4; border-radius: 5px; line-height: 60%\"><p style=\"margin-bottom: 0px\">Resource ManufacturedItemDefinition &quot;mid-6a3c9768548036f502739419bacb2482&quot; </p><p style=\"margin-bottom: 0px\">Profile: <a href=\"https://build.fhir.org/ig/HL7/emedicinal-product-info//StructureDefinition-ManufacturedItemDefinition-uv-epi.html\">ManufacturedItemDefinition (ePI)</a></p></div><p><b>identifier</b>: id:\u00a0EU/1/17/1201/002\u00a0(use:\u00a0OFFICIAL)</p><p><b>status</b>: active</p><p><b>manufacturedDoseForm</b>: Gastro-resistant tablet <span style=\"background: LightGoldenRodYellow; margin: 4px; border: 1px solid khaki\"> (#100000073667)</span></p><p><b>unitOfPresentation</b>: Tablet <span style=\"background: LightGoldenRodYellow; margin: 4px; border: 1px solid khaki\"> (rmswi#200000002152)</span></p></div>"
      },
      "identifier" : [{
        "use" : "official",
        "system" : "https://spor.ema.europa.eu/pmswi",
        "value" : "EU/1/17/1201/002"
      }],
      "status" : "active",
      "manufacturedDoseForm" : {
        "coding" : [{
          "system" : "https://spor.ema.europa.eu/rmswi/",
          "code" : "100000073667",
          "display" : "Gastro-resistant tablet"
        }]
      },
      "unitOfPresentation" : {
        "coding" : [{
          "system" : "https://spor.ema.europa.eu/rmswi",
          "code" : "200000002152",
          "display" : "Tablet"
        }]
      }
    }
  }]
}