{
  "resourceType" : "Bundle",
  "id" : "enhanced-bundleflucelvax-alicia",
  "meta" : {
    "profile" : ["http://hl7.org/fhir/uv/emedicinal-product-info/StructureDefinition/Bundle-uv-epi"]
  },
  "language" : "en",
  "identifier" : {
    "system" : "https://www.gravitatehealth.eu/sid/doc",
    "value" : "EU/1/97/049/001"
  },
  "type" : "document",
  "timestamp" : "2023-04-25T11:55:27Z",
  "entry" : [{
    "fullUrl" : "http://hl7.eu/fhir/ig/gravitate-health/Composition/enhanced-composition056f32ee5cf49404607e368bd8d3f2af",
    "resource" : {
      "resourceType" : "Composition",
      "id" : "enhanced-composition056f32ee5cf49404607e368bd8d3f2af",
      "meta" : {
        "profile" : ["http://hl7.org/fhir/uv/emedicinal-product-info/StructureDefinition/Composition-uv-epi"]
      },
      "language" : "en",
      "text" : {
        "status" : "extensions",
        "div" : "<div xmlns=\"http://www.w3.org/1999/xhtml\" xml:lang=\"en\" lang=\"en\"><p><b>Generated Narrative: Composition</b><a name=\"enhanced-composition056f32ee5cf49404607e368bd8d3f2af\"> </a></p><div style=\"display: inline-block; background-color: #d9e0e7; padding: 6px; margin: 4px; border: 1px solid #8da1b4; border-radius: 5px; line-height: 60%\"><p style=\"margin-bottom: 0px\">Resource Composition &quot;enhanced-composition056f32ee5cf49404607e368bd8d3f2af&quot;  (Language &quot;en&quot;) </p><p style=\"margin-bottom: 0px\">Profile: <a href=\"https://build.fhir.org/ig/HL7/emedicinal-product-info//StructureDefinition-Composition-uv-epi.html\">Composition (ePI)</a></p></div><blockquote><p><b>HtmlElementLink</b></p><blockquote><p><b>url</b></p><code>elementClass</code></blockquote><p><b>value</b>: pregnancyCategory</p><blockquote><p><b>url</b></p><code>concept</code></blockquote><p><b>value</b>: Pregnancy <span style=\"background: LightGoldenRodYellow; margin: 4px; border: 1px solid khaki\"> (<a href=\"https://browser.ihtsdotools.org/\">SNOMED CT</a>#77386006)</span></p></blockquote><p><b>identifier</b>: id:\u00a0asdasd</p><p><b>status</b>: final</p><p><b>type</b>: Package Leaflet <span style=\"background: LightGoldenRodYellow; margin: 4px; border: 1px solid khaki\"> (#100000155538)</span></p><p><b>category</b>: Focused <span style=\"background: LightGoldenRodYellow; margin: 4px; border: 1px solid khaki\"> (<a href=\"CodeSystem-epicategory-cs.html\">Category of EPI</a>#F)</span></p><p><b>date</b>: 2023-04-22 15:15:46+0000</p><p><b>author</b>: <a href=\"#Organization_mah-45fe50eae508b5755dd140ab2093eb5e\">See above (Organization/mah-45fe50eae508b5755dd140ab2093eb5e)</a></p><p><b>title</b>: TEST PURPOSES ONLY - Flucelvax</p><h3>Attesters</h3><table class=\"grid\"><tr><td style=\"display: none\">-</td><td><b>Mode</b></td><td><b>Time</b></td></tr><tr><td style=\"display: none\">*</td><td>Official <span style=\"background: LightGoldenRodYellow; margin: 4px; border: 1px solid khaki\"> (<a href=\"http://hl7.org/fhir/R5/codesystem-composition-attestation-mode.html\">Composition Attestation Mode</a>#official)</span></td><td>2023-04-22 15:15:46+0000</td></tr></table></div>"
      },
      "extension" : [{
        "extension" : [{
          "url" : "elementClass",
          "valueString" : "pregnancyCategory"
        },
        {
          "url" : "concept",
          "valueCodeableReference" : {
            "concept" : {
              "coding" : [{
                "system" : "http://snomed.info/sct",
                "code" : "77386006",
                "display" : "Pregnancy"
              }]
            }
          }
        }],
        "url" : "http://hl7.eu/fhir/ig/gravitate-health/StructureDefinition/HtmlElementLink"
      }],
      "identifier" : [{
        "system" : "https://spor.ema.europa.eu/rmswi/",
        "value" : "asdasd"
      }],
      "status" : "final",
      "type" : {
        "coding" : [{
          "system" : "https://spor.ema.europa.eu/rmswi/",
          "code" : "100000155538"
        }],
        "text" : "Package Leaflet"
      },
      "category" : [{
        "coding" : [{
          "system" : "http://hl7.eu/fhir/ig/gravitate-health/CodeSystem/epicategory-cs",
          "code" : "F",
          "display" : "Focused"
        }]
      }],
      "subject" : [{
        "reference" : "MedicinalProductDefinition/mpb6ced64d25ea2c8da6c6099386f14db1"
      }],
      "date" : "2023-04-22T15:15:46Z",
      "author" : [{
        "reference" : "Organization/mah-45fe50eae508b5755dd140ab2093eb5e"
      }],
      "title" : "TEST PURPOSES ONLY - Flucelvax",
      "attester" : [{
        "mode" : {
          "coding" : [{
            "system" : "http://hl7.org/fhir/composition-attestation-mode",
            "code" : "official"
          }]
        },
        "time" : "2023-04-22T15:15:46Z"
      }],
      "section" : [{
        "title" : "B. Package Leaflet",
        "code" : {
          "coding" : [{
            "system" : "https://spor.ema.europa.eu/rmswi/",
            "code" : "100000155538"
          }],
          "text" : "B. PACKAGE LEAFLET"
        },
        "text" : {
          "status" : "additional",
          "div" : "<div xmlns=\"http://www.w3.org/1999/xhtml\"><div xmlns=\"http://www.w3.org/1999/xhtml\">&lt;p class=\"MsoNormal\" style=\"text-align: center;\" align=\"center\"&gt;&lt;strong style=\"mso-bidi-font-weight: normal;\"&gt;&lt;span lang=\"EN-GB\" style=\"mso-bidi-font-size: 11.0pt; mso-no-proof: yes;\"&gt;Package leaflet: Information for the user&lt;/span&gt;&lt;/strong&gt;&lt;/p&gt; &lt;p class=\"MsoNormal\" style=\"text-align: center; line-height: normal; mso-list: skip; tab-stops: 36.0pt; background: white;\" align=\"center\"&gt;&lt;span lang=\"EN-GB\" style=\"mso-bidi-font-size: 11.0pt; mso-no-proof: yes;\"&gt;&#160;&lt;/span&gt;&lt;/p&gt; &lt;p class=\"SmPC-PLtext\" style=\"text-align: center;\" align=\"center\"&gt;&lt;strong style=\"mso-bidi-font-weight: normal;\"&gt;&lt;span style=\"mso-fareast-font-family: 'MS Mincho'; color: windowtext; mso-ansi-language: EN-US;\"&gt;Flucelvax Tetra&lt;/span&gt;&lt;/strong&gt;&lt;strong style=\"mso-bidi-font-weight: normal;\"&gt;&lt;span lang=\"EN-GB\" style=\"color: windowtext;\"&gt; - suspension for injection in pre-filled syringe&lt;/span&gt;&lt;/strong&gt;&lt;/p&gt; &lt;p class=\"SmPC-PLtext\" style=\"text-align: center;\" align=\"center\"&gt;&lt;span lang=\"EN-GB\" style=\"color: windowtext;\"&gt;Influenza vaccine (surface antigen, inactivated, prepared in cell cultures)&lt;/span&gt;&lt;/p&gt; &lt;p class=\"MsoNormal\" style=\"line-height: normal; tab-stops: 36.0pt;\"&gt;&lt;span lang=\"EN-GB\" style=\"mso-bidi-font-size: 11.0pt; mso-no-proof: yes;\"&gt;&#160;&lt;/span&gt;&lt;/p&gt; &lt;p class=\"MsoNormal\" style=\"line-height: normal; tab-stops: 36.0pt;\"&gt;&lt;span lang=\"EN-GB\" style=\"mso-no-proof: yes;\"&gt;&lt;img src=\"data:image/png;base64,\" annotationsrc=\"~/_entity/annotation/76a10366-26e0-ed11-a7c6-000d3aaa0403\" /&gt;This medicine is subject to additional monitoring. This will allow quick identification of new safety information. You can help by reporting any side effects you may get. See the end of section 4 for how to report side effects.&lt;/span&gt;&lt;/p&gt; &lt;p class=\"MsoNormal\" style=\"line-height: normal; mso-hyphenate: none; tab-stops: 36.0pt;\"&gt;&lt;strong style=\"mso-bidi-font-weight: normal;\"&gt;&lt;span lang=\"EN-GB\" style=\"mso-bidi-font-size: 11.0pt; mso-no-proof: yes;\"&gt;&#160;&lt;/span&gt;&lt;/strong&gt;&lt;/p&gt; &lt;p class=\"MsoNormal\" style=\"line-height: normal; mso-hyphenate: none; tab-stops: 36.0pt;\"&gt;&lt;strong style=\"mso-bidi-font-weight: normal;\"&gt;&lt;span lang=\"EN-GB\" style=\"mso-bidi-font-size: 11.0pt; mso-no-proof: yes;\"&gt;Read all of this leaflet carefully before you receive this medicine because it contains important information for you.&lt;/span&gt;&lt;/strong&gt;&lt;/p&gt; &lt;p class=\"MsoNormal\" style=\"text-indent: -1.0cm; line-height: normal; mso-list: l0 level1 lfo1; tab-stops: 36.0pt; margin: 0cm -.1pt .0001pt 1.0cm;\"&gt;&lt;!-- [if !supportLists]--&gt;&lt;span lang=\"EN-GB\" style=\"mso-bidi-font-size: 11.0pt; mso-no-proof: yes;\"&gt;&lt;span style=\"mso-list: Ignore;\"&gt;-&lt;span style=\"font: 7.0pt 'Times New Roman';\"&gt;&#160;&#160;&#160;&#160;&#160;&#160;&#160;&#160;&#160;&#160;&#160;&#160;&#160; &lt;/span&gt;&lt;/span&gt;&lt;/span&gt;&lt;!--[endif]--&gt;&lt;span lang=\"EN-GB\" style=\"mso-bidi-font-size: 11.0pt; mso-no-proof: yes;\"&gt;Keep this leaflet. You may need to read it again. &lt;/span&gt;&lt;/p&gt; &lt;p class=\"MsoNormal\" style=\"text-indent: -1.0cm; line-height: normal; mso-list: l0 level1 lfo1; tab-stops: 36.0pt; margin: 0cm -.1pt .0001pt 1.0cm;\"&gt;&lt;!-- [if !supportLists]--&gt;&lt;span lang=\"EN-GB\" style=\"mso-bidi-font-size: 11.0pt; mso-no-proof: yes;\"&gt;&lt;span style=\"mso-list: Ignore;\"&gt;-&lt;span style=\"font: 7.0pt 'Times New Roman';\"&gt;&#160;&#160;&#160;&#160;&#160;&#160;&#160;&#160;&#160;&#160;&#160;&#160;&#160; &lt;/span&gt;&lt;/span&gt;&lt;/span&gt;&lt;!--[endif]--&gt;&lt;span lang=\"EN-GB\" style=\"mso-bidi-font-size: 11.0pt; mso-no-proof: yes;\"&gt;If you have any further questions, ask your doctor, pharmacist or nurse.&lt;/span&gt;&lt;/p&gt; &lt;p class=\"MsoNormal\" style=\"margin-left: 1.0cm; text-indent: -1.0cm; line-height: normal; mso-list: l0 level1 lfo1;\"&gt;&lt;!-- [if !supportLists]--&gt;&lt;span lang=\"EN-GB\" style=\"mso-bidi-font-size: 11.0pt;\"&gt;&lt;span style=\"mso-list: Ignore;\"&gt;-&lt;span style=\"font: 7.0pt 'Times New Roman';\"&gt;&#160;&#160;&#160;&#160;&#160;&#160;&#160;&#160;&#160;&#160;&#160;&#160;&#160; &lt;/span&gt;&lt;/span&gt;&lt;/span&gt;&lt;!--[endif]--&gt;&lt;span lang=\"EN-GB\" style=\"mso-bidi-font-size: 11.0pt; mso-no-proof: yes;\"&gt;If you get any side effects, talk to your doctor, pharmacist or nurse.&lt;/span&gt;&lt;span lang=\"EN-GB\" style=\"mso-bidi-font-size: 11.0pt; color: red;\"&gt; &lt;/span&gt;&lt;span lang=\"EN-GB\" style=\"mso-bidi-font-size: 11.0pt;\"&gt;This includes any possible side effects not listed in this leaflet. See section 4.&lt;/span&gt;&lt;/p&gt; &lt;p class=\"MsoNormal\" style=\"margin-right: -.1pt; line-height: normal; tab-stops: 36.0pt;\"&gt;&lt;span lang=\"EN-GB\" style=\"mso-bidi-font-size: 11.0pt; mso-no-proof: yes;\"&gt;&#160;&lt;/span&gt;&lt;/p&gt; &lt;p class=\"MsoNormal\" style=\"margin-right: -.1pt; line-height: normal; tab-stops: 36.0pt;\"&gt;&lt;span lang=\"EN-GB\" style=\"mso-bidi-font-size: 11.0pt; mso-no-proof: yes;\"&gt;&#160;&lt;/span&gt;&lt;/p&gt; &lt;p class=\"MsoNormal\" style=\"margin-right: -.1pt; line-height: normal; mso-list: skip; tab-stops: 36.0pt;\"&gt;&lt;strong style=\"mso-bidi-font-weight: normal;\"&gt;&lt;span lang=\"EN-GB\" style=\"mso-bidi-font-size: 11.0pt; mso-no-proof: yes;\"&gt;What is in this leaflet&lt;/span&gt;&lt;/strong&gt;&lt;/p&gt; &lt;p class=\"MsoNormal\"&gt;&lt;span lang=\"EN-GB\" style=\"mso-bidi-font-size: 11.0pt; mso-no-proof: yes;\"&gt;&#160;&lt;/span&gt;&lt;/p&gt; &lt;p class=\"MsoNormal\" style=\"margin-right: -1.45pt; line-height: normal; mso-list: skip; tab-stops: 21.3pt;\"&gt;&lt;span lang=\"EN-GB\" style=\"mso-bidi-font-size: 11.0pt; mso-no-proof: yes;\"&gt;1.&lt;span style=\"mso-tab-count: 1;\"&gt;&#160;&#160;&#160; &lt;/span&gt;What &lt;/span&gt;&lt;span style=\"mso-bidi-font-size: 11.0pt; mso-fareast-font-family: 'MS Mincho'; mso-ansi-language: EN-US;\"&gt;Flucelvax Tetra &lt;/span&gt;&lt;span lang=\"EN-GB\" style=\"mso-bidi-font-size: 11.0pt; mso-no-proof: yes;\"&gt;is and what it is used for &lt;/span&gt;&lt;/p&gt; &lt;p class=\"MsoNormal\" style=\"margin-right: -1.45pt; line-height: normal; mso-list: skip; tab-stops: 21.3pt;\"&gt;&lt;span lang=\"EN-GB\" style=\"mso-bidi-font-size: 11.0pt; mso-no-proof: yes;\"&gt;2.&lt;span style=\"mso-tab-count: 1;\"&gt;&#160;&#160;&#160; &lt;/span&gt;What you need to know before you &lt;span class=\"SmPC-PLtextChar\"&gt;receive &lt;/span&gt;&lt;/span&gt;&lt;span style=\"mso-bidi-font-size: 11.0pt; mso-fareast-font-family: 'MS Mincho'; mso-ansi-language: EN-US;\"&gt;Flucelvax Tetra&lt;/span&gt;&lt;span style=\"mso-bidi-font-size: 11.0pt; mso-no-proof: yes;\"&gt; &lt;/span&gt;&lt;/p&gt; &lt;p class=\"MsoNormal\" style=\"margin-right: -1.45pt; line-height: normal; mso-list: skip; tab-stops: 21.3pt;\"&gt;&lt;span lang=\"EN-GB\" style=\"mso-bidi-font-size: 11.0pt; mso-no-proof: yes;\"&gt;3.&lt;span style=\"mso-tab-count: 1;\"&gt;&#160;&#160;&#160; &lt;/span&gt;How &lt;/span&gt;&lt;span style=\"mso-bidi-font-size: 11.0pt; mso-fareast-font-family: 'MS Mincho'; mso-ansi-language: EN-US;\"&gt;Flucelvax Tetra &lt;/span&gt;&lt;span class=\"SmPC-PLtextChar\"&gt;&lt;span lang=\"EN-GB\"&gt;is given&lt;/span&gt;&lt;/span&gt;&lt;span lang=\"EN-GB\" style=\"mso-bidi-font-size: 11.0pt; mso-no-proof: yes;\"&gt; &lt;/span&gt;&lt;/p&gt; &lt;p class=\"MsoNormal\" style=\"margin-right: -1.45pt; line-height: normal; mso-list: skip; tab-stops: 21.3pt;\"&gt;&lt;span lang=\"EN-GB\" style=\"mso-bidi-font-size: 11.0pt; mso-no-proof: yes;\"&gt;4.&lt;span style=\"mso-tab-count: 1;\"&gt;&#160;&#160;&#160; &lt;/span&gt;Possible side effects &lt;/span&gt;&lt;/p&gt; &lt;p class=\"MsoNormal\" style=\"margin-right: -1.45pt; line-height: normal; tab-stops: 21.3pt;\"&gt;&lt;span lang=\"EN-GB\" style=\"mso-bidi-font-size: 11.0pt; mso-no-proof: yes;\"&gt;5.&lt;span style=\"mso-tab-count: 1;\"&gt;&#160;&#160;&#160; &lt;/span&gt;How to store &lt;/span&gt;&lt;span style=\"mso-bidi-font-size: 11.0pt; mso-fareast-font-family: 'MS Mincho'; mso-ansi-language: EN-US;\"&gt;Flucelvax Tetra &lt;/span&gt;&lt;span style=\"mso-bidi-font-size: 11.0pt; mso-no-proof: yes;\"&gt;&lt;span style=\"mso-spacerun: yes;\"&gt;&#160;&lt;/span&gt;&lt;/span&gt;&lt;/p&gt; &lt;p class=\"MsoNormal\" style=\"margin-right: -1.45pt; line-height: normal; tab-stops: 21.3pt;\"&gt;&lt;span lang=\"EN-GB\" style=\"mso-bidi-font-size: 11.0pt; mso-no-proof: yes;\"&gt;6.&lt;span style=\"mso-tab-count: 1;\"&gt;&#160;&#160;&#160; &lt;/span&gt;Contents of the pack and other information&lt;/span&gt;&lt;/p&gt;</div></div>"
        },
        "section" : [{
          "title" : "Package leaflet: Information for the user",
          "code" : {
            "coding" : [{
              "system" : "https://spor.ema.europa.eu/rmswi/",
              "code" : "100000155538"
            }],
            "text" : "Package leaflet: Information for the user"
          },
          "text" : {
            "status" : "additional",
            "div" : "<div xmlns=\"http://www.w3.org/1999/xhtml\">unavailable</div>"
          },
          "emptyReason" : {
            "coding" : [{
              "system" : "http://terminology.hl7.org/CodeSystem/list-empty-reason",
              "code" : "unavailable"
            }]
          }
        },
        {
          "title" : "What is in this leaflet",
          "code" : {
            "coding" : [{
              "system" : "https://spor.ema.europa.eu/rmswi/",
              "code" : "100000155538"
            }],
            "text" : "What is in this leaflet"
          },
          "text" : {
            "status" : "additional",
            "div" : "<div xmlns=\"http://www.w3.org/1999/xhtml\">unavailable</div>"
          },
          "emptyReason" : {
            "coding" : [{
              "system" : "http://terminology.hl7.org/CodeSystem/list-empty-reason",
              "code" : "unavailable"
            }]
          }
        },
        {
          "title" : "1. What asdad is and what it is used for",
          "code" : {
            "coding" : [{
              "system" : "https://spor.ema.europa.eu/rmswi/",
              "code" : "100000155538"
            }],
            "text" : "1. What asdad is and what it is used for"
          },
          "text" : {
            "status" : "additional",
            "div" : "<div xmlns=\"http://www.w3.org/1999/xhtml\"><div xmlns=\"http://www.w3.org/1999/xhtml\">&lt;p class=\"SmPC-PLtext\"&gt;&lt;span style=\"mso-fareast-font-family: 'MS Mincho'; color: windowtext; mso-ansi-language: EN-US;\"&gt;Flucelvax Tetra&lt;/span&gt;&lt;span style=\"mso-fareast-font-family: 'MS Mincho'; mso-ansi-language: EN-US;\"&gt; &lt;/span&gt;&lt;span lang=\"EN-GB\" style=\"color: windowtext;\"&gt;is a vaccine against flu (influenza). &lt;/span&gt;&lt;span style=\"mso-fareast-font-family: 'MS Mincho'; color: windowtext; mso-ansi-language: EN-US;\"&gt;Flucelvax Tetra&lt;/span&gt;&lt;span style=\"mso-fareast-font-family: 'MS Mincho'; mso-ansi-language: EN-US;\"&gt; &lt;/span&gt;&lt;span class=\"SmPC-PLtextChar\"&gt;&lt;span lang=\"EN-GB\" style=\"color: windowtext;\"&gt;is prepared in cell cultures, and, therefore, is egg-free.&lt;/span&gt;&lt;/span&gt;&lt;/p&gt; &lt;p class=\"SmPC-PLtext\"&gt;&lt;span lang=\"EN-GB\" style=\"color: windowtext;\"&gt;When a person is given the vaccine, the immune system (the body&#8217;s natural defence system) will produce its own protection against the influenza virus. None of the ingredients in the vaccine can cause flu.&lt;/span&gt;&lt;/p&gt; &lt;p class=\"SmPC-PLtext\"&gt;&lt;span lang=\"EN-GB\" style=\"color: windowtext;\"&gt;&#160;&lt;/span&gt;&lt;/p&gt; &lt;p class=\"SmPC-PLtext\"&gt;&lt;span style=\"mso-fareast-font-family: 'MS Mincho'; color: windowtext; mso-ansi-language: EN-US;\"&gt;Flucelvax Tetra&lt;/span&gt;&lt;span style=\"mso-fareast-font-family: 'MS Mincho'; mso-ansi-language: EN-US;\"&gt; &lt;/span&gt;&lt;span lang=\"EN-GB\" style=\"color: windowtext;\"&gt;is used to prevent flu in adults and children from 2 years of age.&lt;/span&gt;&lt;/p&gt; &lt;p class=\"SmPC-PLtext\"&gt;&lt;span lang=\"EN-GB\" style=\"color: windowtext;\"&gt;&#160;&lt;/span&gt;&lt;/p&gt; &lt;p class=\"SmPC-PLtext\"&gt;&lt;span lang=\"EN-GB\" style=\"color: windowtext;\"&gt;The vaccine targets four strains of influenza virus following the recommendations by the World Health Organisation for the 2022/2023 SEASON.&lt;/span&gt;&lt;/p&gt;</div></div>"
          }
        },
        {
          "title" : "2. What you need to know before you take asdad",
          "code" : {
            "coding" : [{
              "system" : "https://spor.ema.europa.eu/rmswi/",
              "code" : "100000155538"
            }],
            "text" : "2. What you need to know before you take asdad"
          },
          "text" : {
            "status" : "additional",
            "div" : "<div xmlns=\"http://www.w3.org/1999/xhtml\"><div xmlns=\"http://www.w3.org/1999/xhtml\">&lt;p class=\"SmPC-PLtext\" style=\"margin-left: 14.2pt; text-indent: -14.2pt;\"&gt;&lt;span lang=\"EN-GB\" style=\"color: windowtext;\"&gt;If you are allergic to:&lt;/span&gt;&lt;/p&gt; &lt;p class=\"SmPC-PLtext\" style=\"margin-left: 36.0pt; text-indent: -18.0pt; mso-list: l0 level1 lfo1; tab-stops: 42.55pt;\"&gt;&lt;!-- [if !supportLists]--&gt;&lt;span lang=\"EN-GB\" style=\"font-family: Symbol; mso-fareast-font-family: Symbol; mso-bidi-font-family: Symbol; color: windowtext;\"&gt;&lt;span style=\"mso-list: Ignore;\"&gt;&#183;&lt;span style=\"font: 7.0pt 'Times New Roman';\"&gt;&#160;&#160;&#160;&#160;&#160;&#160;&#160; &lt;/span&gt;&lt;/span&gt;&lt;/span&gt;&lt;!--[endif]--&gt;&lt;span lang=\"EN-GB\" style=\"color: windowtext;\"&gt;the active ingredients or any of the other ingredients of this medicine (listed in section&#160;6)&lt;/span&gt;&lt;/p&gt; &lt;p class=\"SmPC-PLtext\" style=\"margin-left: 36.0pt; text-indent: -18.0pt; mso-list: l0 level1 lfo1; tab-stops: 42.55pt;\"&gt;&lt;!-- [if !supportLists]--&gt;&lt;span lang=\"EN-GB\" style=\"font-family: Symbol; mso-fareast-font-family: Symbol; mso-bidi-font-family: Symbol; color: windowtext;\"&gt;&lt;span style=\"mso-list: Ignore;\"&gt;&#183;&lt;span style=\"font: 7.0pt 'Times New Roman';\"&gt;&#160;&#160;&#160;&#160;&#160;&#160;&#160; &lt;/span&gt;&lt;/span&gt;&lt;/span&gt;&lt;!--[endif]--&gt;&lt;span lang=\"EN-GB\" style=\"color: windowtext;\"&gt;beta-propiolactone, cetyltrimethylammonium bromide, or polysorbate&#160;80, which are trace residues from the manufacturing process.&lt;/span&gt;&lt;/p&gt;</div></div>"
          }
        },
        {
          "title" : "3. How to take asdad",
          "code" : {
            "coding" : [{
              "system" : "https://spor.ema.europa.eu/rmswi/",
              "code" : "100000155538"
            }],
            "text" : "3. How to take asdad"
          },
          "text" : {
            "status" : "additional",
            "div" : "<div xmlns=\"http://www.w3.org/1999/xhtml\"><div xmlns=\"http://www.w3.org/1999/xhtml\">&lt;p class=\"MsoNormal\" style=\"line-height: normal; mso-list: skip; tab-stops: 36.0pt;\"&gt;&lt;span lang=\"EN-GB\" style=\"mso-bidi-font-size: 11.0pt; mso-no-proof: yes;\"&gt;Talk to your doctor, pharmacist or nurse before &lt;span class=\"SmPC-PLtextChar\"&gt;receiving&lt;/span&gt; &lt;/span&gt;&lt;span style=\"mso-bidi-font-size: 11.0pt; mso-fareast-font-family: 'MS Mincho'; mso-ansi-language: EN-US;\"&gt;Flucelvax Tetra&lt;/span&gt;&lt;span class=\"SmPC-PLtextChar\"&gt;&lt;span lang=\"EN-GB\"&gt;.&lt;/span&gt;&lt;/span&gt;&lt;/p&gt; &lt;p class=\"MsoNormal\" style=\"margin-right: -.1pt; line-height: normal; mso-list: skip; tab-stops: 36.0pt;\"&gt;&lt;span lang=\"EN-GB\" style=\"mso-bidi-font-size: 11.0pt; mso-no-proof: yes;\"&gt;&#160;&lt;/span&gt;&lt;u&gt;&lt;span style=\"color: windowtext; mso-ansi-language: EN-US;\"&gt;BEFORE receiving the vaccine&lt;/span&gt;&lt;/u&gt;&lt;/p&gt; &lt;p class=\"SmPC-PLtext\" style=\"margin-left: 18.0pt; text-indent: -18.0pt; mso-list: l0 level1 lfo1; tab-stops: 36.0pt;\"&gt;&lt;!-- [if !supportLists]--&gt;&lt;span style=\"font-family: Symbol; mso-fareast-font-family: Symbol; mso-bidi-font-family: Symbol; color: windowtext; mso-ansi-language: EN-US;\"&gt;&lt;span style=\"mso-list: Ignore;\"&gt;&#183;&lt;span style=\"font: 7.0pt 'Times New Roman';\"&gt;&#160;&#160;&#160;&#160;&#160;&#160;&#160; &lt;/span&gt;&lt;/span&gt;&lt;/span&gt;&lt;!--[endif]--&gt;&lt;span style=\"color: windowtext; mso-ansi-language: EN-US;\"&gt;Your &lt;span style=\"mso-bidi-font-weight: bold;\"&gt;doctor or nurse&lt;/span&gt; will make sure that appropriate medical treatment and supervision is readily available in case of a rare anaphylactic reaction (a very severe allergic reaction with symptoms such as difficulty in breathing, dizziness, a weak and rapid pulse and skin rash) following the administration. This reaction may occur with &lt;/span&gt;&lt;span style=\"mso-fareast-font-family: 'MS Mincho'; color: windowtext; mso-ansi-language: EN-US;\"&gt;Flucelvax Tetra&lt;/span&gt;&lt;span class=\"SmPC-PLtextChar\"&gt;&lt;span style=\"color: windowtext;\"&gt; &lt;/span&gt;&lt;/span&gt;&lt;span style=\"color: windowtext; mso-ansi-language: EN-US;\"&gt;as with all vaccines that are injected.&lt;/span&gt;&lt;/p&gt; &lt;p class=\"SmPC-PLtext\" style=\"margin-left: 18.0pt; text-indent: -18.0pt; mso-list: l0 level1 lfo1; tab-stops: 36.0pt;\"&gt;&lt;!-- [if !supportLists]--&gt;&lt;span style=\"font-family: Symbol; mso-fareast-font-family: Symbol; mso-bidi-font-family: Symbol; color: windowtext; mso-ansi-language: EN-US;\"&gt;&lt;span style=\"mso-list: Ignore;\"&gt;&#183;&lt;span style=\"font: 7.0pt 'Times New Roman';\"&gt;&#160;&#160;&#160;&#160;&#160;&#160;&#160; &lt;/span&gt;&lt;/span&gt;&lt;/span&gt;&lt;!--[endif]--&gt;&lt;span style=\"color: windowtext; mso-ansi-language: EN-US;\"&gt;You should tell your doctor if you have an acute illness associated with fever. Your doctor may decide to delay your vaccination until your fever is gone.&lt;/span&gt;&lt;/p&gt; &lt;p class=\"SmPC-PLtext\" style=\"margin-left: 18.0pt; text-indent: -18.0pt; mso-list: l0 level1 lfo1; tab-stops: 36.0pt;\"&gt;&lt;!-- [if !supportLists]--&gt;&lt;span style=\"font-family: Symbol; mso-fareast-font-family: Symbol; mso-bidi-font-family: Symbol; color: windowtext; mso-ansi-language: EN-US;\"&gt;&lt;span style=\"mso-list: Ignore;\"&gt;&#183;&lt;span style=\"font: 7.0pt 'Times New Roman';\"&gt;&#160;&#160;&#160;&#160;&#160;&#160;&#160; &lt;/span&gt;&lt;/span&gt;&lt;/span&gt;&lt;!--[endif]--&gt;&lt;span style=\"color: windowtext; mso-ansi-language: EN-US; mso-bidi-font-weight: bold;\"&gt;You&lt;/span&gt;&lt;span style=\"color: windowtext; mso-ansi-language: EN-US;\"&gt; should tell your doctor if your immune system is impaired, or if you are undergoing treatment which affects the immune system, e.g. with medicine against cancer (chemotherapy) or corticosteroid medicines (see section &#8220;Other medicines and Flucelvax Tetra&#8221;).&lt;/span&gt;&lt;/p&gt; &lt;p class=\"SmPC-PLtext\" style=\"margin-left: 18.0pt; text-indent: -18.0pt; mso-list: l0 level1 lfo1; tab-stops: 36.0pt;\"&gt;&lt;!-- [if !supportLists]--&gt;&lt;span style=\"font-family: Symbol; mso-fareast-font-family: Symbol; mso-bidi-font-family: Symbol; color: windowtext; mso-ansi-language: EN-US;\"&gt;&lt;span style=\"mso-list: Ignore;\"&gt;&#183;&lt;span style=\"font: 7.0pt 'Times New Roman';\"&gt;&#160;&#160;&#160;&#160;&#160;&#160;&#160; &lt;/span&gt;&lt;/span&gt;&lt;/span&gt;&lt;!--[endif]--&gt;&lt;span style=\"color: windowtext; mso-ansi-language: EN-US;\"&gt;You should tell your doctor if you have a bleeding problem or bruise easily.&lt;/span&gt;&lt;/p&gt; &lt;p class=\"SmPC-PLtext\" style=\"margin-left: 18.0pt; text-indent: -18.0pt; mso-list: l0 level1 lfo1; tab-stops: 36.0pt;\"&gt;&lt;!-- [if !supportLists]--&gt;&lt;span style=\"font-family: Symbol; mso-fareast-font-family: Symbol; mso-bidi-font-family: Symbol; color: windowtext; mso-ansi-language: EN-US;\"&gt;&lt;span style=\"mso-list: Ignore;\"&gt;&#183;&lt;span style=\"font: 7.0pt 'Times New Roman';\"&gt;&#160;&#160;&#160;&#160;&#160;&#160;&#160; &lt;/span&gt;&lt;/span&gt;&lt;/span&gt;&lt;!--[endif]--&gt;&lt;span style=\"color: windowtext; mso-ansi-language: EN-US;\"&gt;Fainting can occur following, or even before, any needle injection, therefore tell the doctor or nurse if you fainted with a previous injection.&lt;/span&gt;&lt;/p&gt; &lt;p class=\"SmPC-PLtext\" style=\"tab-stops: 36.0pt;\"&gt;&lt;span style=\"color: windowtext; mso-ansi-language: EN-US;\"&gt;&#160;&lt;/span&gt;&lt;span style=\"color: windowtext; mso-ansi-language: EN-US;\"&gt;As with all vaccines, Flucelvax Tetra may not fully protect all persons who are vaccinated.&lt;/span&gt;&lt;/p&gt;</div></div>"
          }
        },
        {
          "title" : "4. Possible side effects",
          "code" : {
            "coding" : [{
              "system" : "https://spor.ema.europa.eu/rmswi/",
              "code" : "100000155538"
            }],
            "text" : "4. Possible side effects"
          },
          "text" : {
            "status" : "additional",
            "div" : "<div xmlns=\"http://www.w3.org/1999/xhtml\"><div xmlns=\"http://www.w3.org/1999/xhtml\">&lt;p class=\"MsoNormal\" style=\"margin-right: -1.45pt; line-height: normal; mso-list: skip; tab-stops: 36.0pt;\"&gt;&lt;span lang=\"EN-GB\" style=\"mso-bidi-font-size: 11.0pt; mso-no-proof: yes;\"&gt;Like all medicines, this medicine can cause side effects, although not everybody gets them.&lt;/span&gt;&lt;/p&gt; &lt;p class=\"SmPC-PLtext\"&gt;&lt;span lang=\"EN-GB\" style=\"color: windowtext;\"&gt;The following side effects have been reported during clinical trials and during general use:&lt;/span&gt;&lt;/p&gt; &lt;p class=\"SmPC-PLtext\"&gt;&lt;span lang=\"EN-GB\" style=\"color: windowtext;\"&gt;&#160;&lt;/span&gt;&lt;/p&gt; &lt;p class=\"SmPC-PLtext\" style=\"page-break-after: avoid;\"&gt;&lt;strong style=\"mso-bidi-font-weight: normal;\"&gt;&lt;span lang=\"EN-GB\" style=\"color: windowtext;\"&gt;Very serious side effects&lt;/span&gt;&lt;/strong&gt;&lt;/p&gt; &lt;p class=\"SmPC-PLtext\"&gt;&lt;span lang=\"EN-GB\" style=\"color: windowtext;\"&gt;Tell your doctor immediately or go to the casualty department at your nearest hospital if you experience the following side effect &#8211; you may need urgent medical attention or hospitalisation:&lt;/span&gt;&lt;/p&gt; &lt;p class=\"SmPC-PLtext\"&gt;&lt;span lang=\"EN-GB\" style=\"color: windowtext;\"&gt;&#160;&lt;/span&gt;&lt;/p&gt; &lt;p class=\"SmPC-PLtext\" style=\"margin-left: 14.2pt; text-indent: -14.2pt; mso-list: l0 level1 lfo1; tab-stops: 36.0pt;\"&gt;&lt;!-- [if !supportLists]--&gt;&lt;span lang=\"EN-GB\" style=\"color: windowtext;\"&gt;&lt;span style=\"mso-list: Ignore;\"&gt;&#8226;&lt;span style=\"font: 7.0pt 'Times New Roman';\"&gt;&#160;&#160;&#160;&#160;&#160; &lt;/span&gt;&lt;/span&gt;&lt;/span&gt;&lt;!--[endif]--&gt;&lt;span lang=\"EN-GB\" style=\"color: windowtext;\"&gt;Difficulty in breathing, dizziness, a weak and rapid pulse and skin rash which are symptoms of an anaphylactic reaction (a very severe allergic reaction)&lt;/span&gt;&lt;/p&gt; &lt;p class=\"SmPC-PLtext\" style=\"tab-stops: 36.0pt;\"&gt;&lt;span lang=\"EN-GB\" style=\"color: windowtext;\"&gt;&#160;&lt;/span&gt;&lt;/p&gt; &lt;p class=\"SmPC-PLtext\" style=\"page-break-after: avoid;\"&gt;&lt;strong style=\"mso-bidi-font-weight: normal;\"&gt;&lt;span lang=\"EN-GB\" style=\"color: windowtext;\"&gt;Serious side effects&lt;/span&gt;&lt;/strong&gt;&lt;/p&gt; &lt;p class=\"SmPC-PLtext\"&gt;&lt;span lang=\"EN-GB\" style=\"color: windowtext;\"&gt;Tell your doctor immediately if you experience any of the following side effects &#8211; you may need medical attention:&lt;/span&gt;&lt;/p&gt; &lt;p class=\"SmPC-PLtext\"&gt;&lt;span lang=\"EN-GB\" style=\"color: windowtext;\"&gt;&#160;&lt;/span&gt;&lt;/p&gt; &lt;p class=\"SmPC-PLtext\" style=\"margin-left: 14.2pt; text-indent: -14.2pt; mso-list: l0 level1 lfo1; tab-stops: 36.0pt;\"&gt;&lt;!-- [if !supportLists]--&gt;&lt;span lang=\"EN-GB\" style=\"color: windowtext;\"&gt;&lt;span style=\"mso-list: Ignore;\"&gt;&#8226;&lt;span style=\"font: 7.0pt 'Times New Roman';\"&gt;&#160;&#160;&#160;&#160;&#160; &lt;/span&gt;&lt;/span&gt;&lt;/span&gt;&lt;!--[endif]--&gt;&lt;span lang=\"EN-GB\" style=\"color: windowtext;\"&gt;You feel weak, you have difficulty moving around or you experience numbness or tingling in your limbs. These can be symptoms of &lt;span style=\"mso-spacerun: yes;\"&gt;&#160;&lt;/span&gt;Guillain-Barr&#233; syndrome (GBS), an autoimmune disease caused by your body&#8217;s own immune system.&lt;/span&gt;&lt;/p&gt; &lt;p class=\"SmPC-PLtext\" style=\"margin-left: 14.2pt; text-indent: -14.2pt; mso-list: l0 level1 lfo1; tab-stops: 36.0pt;\"&gt;&lt;!-- [if !supportLists]--&gt;&lt;span lang=\"EN-GB\" style=\"color: windowtext;\"&gt;&lt;span style=\"mso-list: Ignore;\"&gt;&#8226;&lt;span style=\"font: 7.0pt 'Times New Roman';\"&gt;&#160;&#160;&#160;&#160;&#160; &lt;/span&gt;&lt;/span&gt;&lt;/span&gt;&lt;!--[endif]--&gt;&lt;span lang=\"EN-GB\" style=\"color: windowtext;\"&gt;Extensive swelling of injected limb&lt;/span&gt;&lt;/p&gt; &lt;p class=\"SmPC-PLtext\"&gt;&lt;span lang=\"EN-GB\" style=\"color: windowtext;\"&gt;&#160;&lt;/span&gt;&lt;/p&gt; &lt;p class=\"SmPC-PLtext\"&gt;&lt;strong style=\"mso-bidi-font-weight: normal;\"&gt;&lt;span lang=\"EN-GB\" style=\"color: windowtext;\"&gt;Mild side effects&lt;/span&gt;&lt;/strong&gt;&lt;/p&gt; &lt;p class=\"SmPC-PLtext\"&gt;&lt;u&gt;&lt;span lang=\"EN-GB\" style=\"color: windowtext;\"&gt;Very common&lt;/span&gt;&lt;/u&gt;&lt;span lang=\"EN-GB\" style=\"color: windowtext;\"&gt; (may affect more than 1 in 10 people):&lt;/span&gt;&lt;/p&gt; &lt;p class=\"SmPC-PLtext\" style=\"margin-left: 14.2pt; text-indent: -14.2pt; mso-list: l0 level1 lfo1; tab-stops: 36.0pt;\"&gt;&lt;!-- [if !supportLists]--&gt;&lt;span lang=\"EN-GB\" style=\"color: windowtext;\"&gt;&lt;span style=\"mso-list: Ignore;\"&gt;&#8226;&lt;span style=\"font: 7.0pt 'Times New Roman';\"&gt;&#160;&#160;&#160;&#160;&#160; &lt;/span&gt;&lt;/span&gt;&lt;/span&gt;&lt;!--[endif]--&gt;&lt;span lang=\"EN-GB\" style=\"color: windowtext;\"&gt;Injection site pain, bruising, reddening and hardening or swelling at the site of the injection&lt;/span&gt;&lt;/p&gt; &lt;p class=\"SmPC-PLtext\" style=\"margin-left: 14.2pt; text-indent: -14.2pt; mso-list: l0 level1 lfo1; tab-stops: 36.0pt;\"&gt;&lt;!-- [if !supportLists]--&gt;&lt;span lang=\"EN-GB\" style=\"color: windowtext;\"&gt;&lt;span style=\"mso-list: Ignore;\"&gt;&#8226;&lt;span style=\"font: 7.0pt 'Times New Roman';\"&gt;&#160;&#160;&#160;&#160;&#160; &lt;/span&gt;&lt;/span&gt;&lt;/span&gt;&lt;!--[endif]--&gt;&lt;span lang=\"EN-GB\" style=\"color: windowtext;\"&gt;Headache&lt;/span&gt;&lt;/p&gt; &lt;p class=\"SmPC-PLtext\" style=\"margin-left: 14.2pt; text-indent: -14.2pt; mso-list: l0 level1 lfo1; tab-stops: 36.0pt;\"&gt;&lt;!-- [if !supportLists]--&gt;&lt;span lang=\"EN-GB\" style=\"color: windowtext;\"&gt;&lt;span style=\"mso-list: Ignore;\"&gt;&#8226;&lt;span style=\"font: 7.0pt 'Times New Roman';\"&gt;&#160;&#160;&#160;&#160;&#160; &lt;/span&gt;&lt;/span&gt;&lt;/span&gt;&lt;!--[endif]--&gt;&lt;span lang=\"EN-GB\" style=\"color: windowtext;\"&gt;Muscle pain &lt;span style=\"mso-spacerun: yes;\"&gt;&#160;&lt;/span&gt;&lt;/span&gt;&lt;/p&gt; &lt;p class=\"SmPC-PLtext\" style=\"margin-left: 14.2pt; text-indent: -14.2pt; mso-list: l0 level1 lfo1; tab-stops: 36.0pt;\"&gt;&lt;!-- [if !supportLists]--&gt;&lt;span lang=\"EN-GB\" style=\"color: windowtext;\"&gt;&lt;span style=\"mso-list: Ignore;\"&gt;&#8226;&lt;span style=\"font: 7.0pt 'Times New Roman';\"&gt;&#160;&#160;&#160;&#160;&#160; &lt;/span&gt;&lt;/span&gt;&lt;/span&gt;&lt;!--[endif]--&gt;&lt;span lang=\"EN-GB\" style=\"color: windowtext;\"&gt;Tiredness &lt;/span&gt;&lt;/p&gt; &lt;p class=\"SmPC-PLtext\" style=\"margin-left: 14.2pt; text-indent: -14.2pt; mso-list: l0 level1 lfo1; tab-stops: 36.0pt;\"&gt;&lt;!-- [if !supportLists]--&gt;&lt;span lang=\"EN-GB\" style=\"color: windowtext;\"&gt;&lt;span style=\"mso-list: Ignore;\"&gt;&#8226;&lt;span style=\"font: 7.0pt 'Times New Roman';\"&gt;&#160;&#160;&#160;&#160;&#160; &lt;/span&gt;&lt;/span&gt;&lt;/span&gt;&lt;!--[endif]--&gt;&lt;span lang=\"EN-GB\" style=\"color: windowtext;\"&gt;Loss of appetite&lt;/span&gt;&lt;/p&gt; &lt;p class=\"SmPC-PLtext\" style=\"margin-left: 14.2pt; text-indent: -14.2pt; mso-list: l0 level1 lfo1; tab-stops: 36.0pt;\"&gt;&lt;!-- [if !supportLists]--&gt;&lt;span lang=\"EN-GB\" style=\"color: windowtext;\"&gt;&lt;span style=\"mso-list: Ignore;\"&gt;&#8226;&lt;span style=\"font: 7.0pt 'Times New Roman';\"&gt;&#160;&#160;&#160;&#160;&#160; &lt;/span&gt;&lt;/span&gt;&lt;/span&gt;&lt;!--[endif]--&gt;&lt;span lang=\"EN-GB\" style=\"color: windowtext;\"&gt;Irritability (only reported in children from 2 to &lt; 6 years)&lt;/span&gt;&lt;/p&gt; &lt;p class=\"SmPC-PLtext\" style=\"margin-left: 14.2pt; text-indent: -14.2pt; mso-list: l0 level1 lfo1; tab-stops: 36.0pt;\"&gt;&lt;!-- [if !supportLists]--&gt;&lt;span lang=\"EN-GB\" style=\"color: windowtext;\"&gt;&lt;span style=\"mso-list: Ignore;\"&gt;&#8226;&lt;span style=\"font: 7.0pt 'Times New Roman';\"&gt;&#160;&#160;&#160;&#160;&#160; &lt;/span&gt;&lt;/span&gt;&lt;/span&gt;&lt;!--[endif]--&gt;&lt;span lang=\"EN-GB\" style=\"color: windowtext;\"&gt;Sleepiness (only reported in children 2 to &lt; 6 years)&lt;/span&gt;&lt;/p&gt; &lt;p class=\"SmPC-PLtext\"&gt;&lt;span lang=\"EN-GB\" style=\"color: windowtext;\"&gt;Hardening or swelling at the site of the injection, headache, muscle pain, and tiredness were common in the elderly.&lt;/span&gt;&lt;/p&gt; &lt;p class=\"SmPC-PLtext\"&gt;&lt;span lang=\"EN-GB\" style=\"color: windowtext;\"&gt;Bruising at the site of the injection was common in adults, eldery and children 9 to &lt; 18 years.&lt;/span&gt;&lt;/p&gt; &lt;p class=\"SmPC-PLtext\"&gt;&lt;span lang=\"EN-GB\" style=\"color: windowtext;\"&gt;Headache was common in the elderly.&lt;/span&gt;&lt;/p&gt; &lt;p class=\"SmPC-PLtext\"&gt;&lt;span lang=\"EN-GB\" style=\"color: windowtext;\"&gt;Loss of appetite was common in adults, eldery and children 9 to &lt; 18 years.&lt;/span&gt;&lt;/p&gt; &lt;p class=\"SmPC-PLtext\"&gt;&lt;span lang=\"EN-GB\" style=\"color: windowtext;\"&gt;&#160;&lt;/span&gt;&lt;/p&gt; &lt;p class=\"SmPC-PLtext\" style=\"page-break-after: avoid;\"&gt;&lt;u&gt;&lt;span lang=\"EN-GB\" style=\"color: windowtext;\"&gt;Common&lt;/span&gt;&lt;/u&gt;&lt;span lang=\"EN-GB\" style=\"color: windowtext;\"&gt; (may affect up to 1 in 10 people):&lt;/span&gt;&lt;/p&gt; &lt;p class=\"SmPC-PLtext\" style=\"margin-left: 14.2pt; text-indent: -14.2pt; mso-list: l0 level1 lfo1; tab-stops: 36.0pt;\"&gt;&lt;!-- [if !supportLists]--&gt;&lt;span lang=\"EN-GB\" style=\"color: windowtext;\"&gt;&lt;span style=\"mso-list: Ignore;\"&gt;&#8226;&lt;span style=\"font: 7.0pt 'Times New Roman';\"&gt;&#160;&#160;&#160;&#160;&#160; &lt;/span&gt;&lt;/span&gt;&lt;/span&gt;&lt;!--[endif]--&gt;&lt;span lang=\"EN-GB\" style=\"color: windowtext;\"&gt;Nausea, vomiting, diarrhoea &lt;/span&gt;&lt;/p&gt; &lt;p class=\"SmPC-PLtext\" style=\"margin-left: 14.2pt; text-indent: -14.2pt; mso-list: l0 level1 lfo1; tab-stops: 36.0pt;\"&gt;&lt;!-- [if !supportLists]--&gt;&lt;span lang=\"EN-GB\" style=\"color: windowtext;\"&gt;&lt;span style=\"mso-list: Ignore;\"&gt;&#8226;&lt;span style=\"font: 7.0pt 'Times New Roman';\"&gt;&#160;&#160;&#160;&#160;&#160; &lt;/span&gt;&lt;/span&gt;&lt;/span&gt;&lt;!--[endif]--&gt;&lt;span lang=\"EN-GB\" style=\"color: windowtext;\"&gt;Joint pain&lt;/span&gt;&lt;/p&gt; &lt;p class=\"SmPC-PLtext\" style=\"margin-left: 14.2pt; text-indent: -14.2pt; mso-list: l0 level1 lfo1; tab-stops: 36.0pt;\"&gt;&lt;!-- [if !supportLists]--&gt;&lt;span lang=\"EN-GB\" style=\"color: windowtext;\"&gt;&lt;span style=\"mso-list: Ignore;\"&gt;&#8226;&lt;span style=\"font: 7.0pt 'Times New Roman';\"&gt;&#160;&#160;&#160;&#160;&#160; &lt;/span&gt;&lt;/span&gt;&lt;/span&gt;&lt;!--[endif]--&gt;&lt;span lang=\"EN-GB\" style=\"color: windowtext;\"&gt;Shivering&lt;/span&gt;&lt;/p&gt; &lt;p class=\"SmPC-PLtext\" style=\"margin-left: 14.2pt; text-indent: -14.2pt; mso-list: l0 level1 lfo1; tab-stops: 36.0pt;\"&gt;&lt;!-- [if !supportLists]--&gt;&lt;span lang=\"EN-GB\" style=\"color: windowtext;\"&gt;&lt;span style=\"mso-list: Ignore;\"&gt;&#8226;&lt;span style=\"font: 7.0pt 'Times New Roman';\"&gt;&#160;&#160;&#160;&#160;&#160; &lt;/span&gt;&lt;/span&gt;&lt;/span&gt;&lt;!--[endif]--&gt;&lt;span lang=\"EN-GB\" style=\"color: windowtext;\"&gt;Change in eating habits (only reported in children from 2 to &lt; 6 years)&lt;/span&gt;&lt;/p&gt; &lt;p class=\"SmPC-PLtext\" style=\"margin-left: 14.2pt; text-indent: -14.2pt; mso-list: l0 level1 lfo1; tab-stops: 36.0pt;\"&gt;&lt;!-- [if !supportLists]--&gt;&lt;span lang=\"EN-GB\" style=\"color: windowtext;\"&gt;&lt;span style=\"mso-list: Ignore;\"&gt;&#8226;&lt;span style=\"font: 7.0pt 'Times New Roman';\"&gt;&#160;&#160;&#160;&#160;&#160; &lt;/span&gt;&lt;/span&gt;&lt;/span&gt;&lt;!--[endif]--&gt;&lt;span lang=\"EN-GB\" style=\"color: windowtext;\"&gt;Fever (&lt;u&gt;&gt;&lt;/u&gt; 38&#176;C)&lt;/span&gt;&lt;/p&gt; &lt;p class=\"SmPC-PLtext\"&gt;&lt;span lang=\"EN-GB\" style=\"color: windowtext;\"&gt;Vomiting was uncommon in the elderly.&lt;/span&gt;&lt;/p&gt; &lt;p class=\"SmPC-PLtext\"&gt;&lt;span lang=\"EN-GB\" style=\"color: windowtext;\"&gt;Fever was uncommon in adults and the elderly.&lt;/span&gt;&lt;/p&gt; &lt;p class=\"SmPC-PLtext\"&gt;&lt;span lang=\"EN-GB\" style=\"color: windowtext;\"&gt;&#160;&lt;/span&gt;&lt;/p&gt; &lt;p class=\"SmPC-PLtext\"&gt;&lt;u&gt;&lt;span lang=\"EN-GB\" style=\"color: windowtext;\"&gt;Not known&lt;/span&gt;&lt;/u&gt;&lt;span lang=\"EN-GB\" style=\"color: windowtext;\"&gt; (frequency cannot be estimated from the available data):&lt;/span&gt;&lt;/p&gt; &lt;p class=\"SmPC-PLtext\" style=\"margin-left: 14.2pt; text-indent: -14.2pt; mso-list: l0 level1 lfo1; tab-stops: 36.0pt;\"&gt;&lt;!-- [if !supportLists]--&gt;&lt;span lang=\"EN-GB\" style=\"color: windowtext;\"&gt;&lt;span style=\"mso-list: Ignore;\"&gt;&#8226;&lt;span style=\"font: 7.0pt 'Times New Roman';\"&gt;&#160;&#160;&#160;&#160;&#160; &lt;/span&gt;&lt;/span&gt;&lt;/span&gt;&lt;!--[endif]--&gt;&lt;span lang=\"EN-GB\" style=\"color: windowtext;\"&gt;Numbness and tingling sensation (paraesthesia)&lt;/span&gt;&lt;/p&gt; &lt;p class=\"SmPC-PLtext\" style=\"margin-left: 14.2pt; text-indent: -14.2pt; mso-list: l0 level1 lfo1; tab-stops: 36.0pt;\"&gt;&lt;!-- [if !supportLists]--&gt;&lt;span lang=\"EN-GB\" style=\"color: windowtext;\"&gt;&lt;span style=\"mso-list: Ignore;\"&gt;&#8226;&lt;span style=\"font: 7.0pt 'Times New Roman';\"&gt;&#160;&#160;&#160;&#160;&#160; &lt;/span&gt;&lt;/span&gt;&lt;/span&gt;&lt;!--[endif]--&gt;&lt;span lang=\"EN-GB\" style=\"color: windowtext;\"&gt;Generalised skin reactions including itching, bumps on the skin (pruritis, urticaria) or non-specific rash &lt;/span&gt;&lt;/p&gt;</div></div>"
          }
        },
        {
          "title" : "5. How to store asdad",
          "code" : {
            "coding" : [{
              "system" : "https://spor.ema.europa.eu/rmswi/",
              "code" : "100000155538"
            }],
            "text" : "5. How to store asdad"
          },
          "text" : {
            "status" : "additional",
            "div" : "<div xmlns=\"http://www.w3.org/1999/xhtml\"><div xmlns=\"http://www.w3.org/1999/xhtml\">&lt;p class=\"MsoNormal\" style=\"margin-right: -.1pt; line-height: normal; mso-list: skip; tab-stops: 36.0pt;\"&gt;&lt;span lang=\"EN-GB\" style=\"mso-bidi-font-size: 11.0pt; mso-no-proof: yes;\"&gt;Keep this&#160;&lt;span class=\"SmPC-PLtextChar\"&gt;vaccine&lt;/span&gt; out of the sight and reach of children.&lt;/span&gt;&lt;/p&gt; &lt;p class=\"MsoNormal\" style=\"margin-right: -.1pt; line-height: normal; mso-list: skip; tab-stops: 36.0pt;\"&gt;&lt;span lang=\"EN-GB\" style=\"mso-bidi-font-size: 11.0pt; mso-no-proof: yes;\"&gt;&#160;&lt;/span&gt;&lt;/p&gt; &lt;p class=\"SmPC-PLtext\"&gt;&lt;span lang=\"EN-GB\" style=\"color: windowtext;\"&gt;Store in a refrigerator (2 &#176;C&#160;to&#160;8 &#176;C). Do not freeze.&lt;/span&gt;&lt;/p&gt; &lt;p class=\"SmPC-PLtext\"&gt;&lt;span lang=\"EN-GB\" style=\"color: windowtext;\"&gt;Keep the pre-filled syringe in the outer carton in order to protect from light.&lt;/span&gt;&lt;/p&gt; &lt;p class=\"MsoNormal\" style=\"margin-right: -.1pt; line-height: normal; mso-list: skip; tab-stops: 36.0pt;\"&gt;&lt;span lang=\"EN-GB\" style=\"mso-bidi-font-size: 11.0pt; mso-no-proof: yes;\"&gt;&#160;&lt;/span&gt;&lt;/p&gt; &lt;p class=\"MsoNormal\" style=\"margin-right: -.1pt; line-height: normal; mso-list: skip; tab-stops: 36.0pt;\"&gt;&lt;span lang=\"EN-GB\" style=\"mso-bidi-font-size: 11.0pt; mso-no-proof: yes;\"&gt;Do not use this &lt;span class=\"SmPC-PLtextChar\"&gt;vaccine&lt;/span&gt; after the expiry date which is stated on the label and carton after &lt;span class=\"SmPC-PLtextChar\"&gt;EXP&lt;/span&gt;. The expiry date refers to the last day of that month.&lt;/span&gt;&lt;/p&gt; &lt;p class=\"MsoNormal\" style=\"margin-right: -.1pt; line-height: normal; mso-list: skip; tab-stops: 36.0pt;\"&gt;&lt;span lang=\"EN-GB\" style=\"mso-bidi-font-size: 11.0pt; mso-no-proof: yes;\"&gt;&#160;&lt;/span&gt;&lt;/p&gt; &lt;p class=\"MsoNormal\" style=\"margin-right: -.1pt; line-height: normal; mso-list: skip; tab-stops: 36.0pt;\"&gt;&lt;span lang=\"EN-GB\" style=\"mso-bidi-font-size: 11.0pt; mso-no-proof: yes;\"&gt;Do not throw away any medicines via wastewater or household waste. Ask your pharmacist how to throw away medicines you no longer use. These measures will help protect the environment.&lt;/span&gt;&lt;/p&gt;</div></div>"
          }
        },
        {
          "title" : "6. Contents of the pack and other information",
          "code" : {
            "coding" : [{
              "system" : "https://spor.ema.europa.eu/rmswi/",
              "code" : "100000155538"
            }],
            "text" : "6. Contents of the pack and other information"
          },
          "text" : {
            "status" : "additional",
            "div" : "<div xmlns=\"http://www.w3.org/1999/xhtml\"><div xmlns=\"http://www.w3.org/1999/xhtml\">&lt;p class=\"SmPC-PLtext\"&gt;&lt;span style=\"mso-fareast-font-family: 'MS Mincho'; color: windowtext; mso-ansi-language: EN-US;\"&gt;Flucelvax Tetra&lt;/span&gt;&lt;span style=\"mso-fareast-font-family: 'MS Mincho'; mso-ansi-language: EN-US;\"&gt; &lt;/span&gt;&lt;span lang=\"EN-GB\" style=\"color: windowtext;\"&gt;is a suspension for injection in a pre-filled syringe (ready to use syringe). &lt;br /&gt;&lt;/span&gt;&lt;span style=\"mso-fareast-font-family: 'MS Mincho'; color: windowtext; mso-ansi-language: EN-US;\"&gt;Flucelvax Tetra&lt;/span&gt;&lt;span style=\"mso-fareast-font-family: 'MS Mincho'; mso-ansi-language: EN-US;\"&gt; &lt;/span&gt;&lt;span lang=\"EN-GB\" style=\"color: windowtext;\"&gt;is a clear to slightly opalescent suspension.&lt;/span&gt;&lt;/p&gt; &lt;p class=\"SmPC-PLtext\"&gt;&lt;span lang=\"EN-GB\" style=\"color: windowtext;\"&gt;A single syringe contains 0.5&#160;ml of suspension for injection.&lt;/span&gt;&lt;/p&gt; &lt;p class=\"SmPC-PLtext\"&gt;&lt;span style=\"mso-fareast-font-family: 'MS Mincho'; color: windowtext; mso-ansi-language: EN-US;\"&gt;Flucelvax Tetra&lt;/span&gt;&lt;span style=\"mso-fareast-font-family: 'MS Mincho'; mso-ansi-language: EN-US;\"&gt; &lt;/span&gt;&lt;span lang=\"EN-GB\" style=\"color: windowtext;\"&gt;is available in packs containing 1 pre-filled syringe with or without needle or 10 pre-filled syringes with or without needles.&lt;/span&gt;&lt;/p&gt; &lt;p class=\"SmPC-PLtext\"&gt;&lt;span lang=\"EN-GB\" style=\"color: windowtext;\"&gt;Not all pack sizes may be marketed.&lt;/span&gt;&lt;/p&gt;</div></div>"
          }
        }]
      }]
    }
  },
  {
    "fullUrl" : "http://hl7.eu/fhir/ig/gravitate-health/Ingredient/ingredient-for-2e8cb2387c664fb619f6b8914767d38f",
    "resource" : {
      "resourceType" : "Ingredient",
      "id" : "ingredient-for-2e8cb2387c664fb619f6b8914767d38f",
      "meta" : {
        "profile" : ["http://hl7.org/fhir/uv/emedicinal-product-info/StructureDefinition/Ingredient-uv-epi"]
      },
      "text" : {
        "status" : "generated",
        "div" : "<div xmlns=\"http://www.w3.org/1999/xhtml\"><p><b>Generated Narrative: Ingredient</b><a name=\"ingredient-for-2e8cb2387c664fb619f6b8914767d38f\"> </a></p><div style=\"display: inline-block; background-color: #d9e0e7; padding: 6px; margin: 4px; border: 1px solid #8da1b4; border-radius: 5px; line-height: 60%\"><p style=\"margin-bottom: 0px\">Resource Ingredient &quot;ingredient-for-2e8cb2387c664fb619f6b8914767d38f&quot; </p><p style=\"margin-bottom: 0px\">Profile: <a href=\"https://build.fhir.org/ig/HL7/emedicinal-product-info//StructureDefinition-Ingredient-uv-epi.html\">Ingredient (ePI)</a></p></div><p><b>identifier</b>: id:\u00a09V4SVN4JQV\u00a0(use:\u00a0OFFICIAL)</p><p><b>status</b>: active</p><p><b>for</b>: </p><ul><li><a href=\"#ManufacturedItemDefinition_mid-04c9bd6fb89d38b2d83eced2460c4dc1\">See above (ManufacturedItemDefinition/mid-04c9bd6fb89d38b2d83eced2460c4dc1)</a></li><li><a href=\"#MedicinalProductDefinition_mpb6ced64d25ea2c8da6c6099386f14db1\">See above (MedicinalProductDefinition/mpb6ced64d25ea2c8da6c6099386f14db1)</a></li><li><a href=\"#AdministrableProductDefinition_ap-04c9bd6fb89d38b2d83eced2460c4dc1\">See above (AdministrableProductDefinition/ap-04c9bd6fb89d38b2d83eced2460c4dc1)</a></li></ul><p><b>role</b>: active <span style=\"background: LightGoldenRodYellow; margin: 4px; border: 1px solid khaki\"> (rmswi#100000072072)</span></p><blockquote><p><b>substance</b></p><h3>Codes</h3><table class=\"grid\"><tr><td style=\"display: none\">-</td><td><b>Concept</b></td></tr><tr><td style=\"display: none\">*</td><td>INFLUENZA A VIRUS A/Delaware/55/2019 CVR-45 (H1N1) WHOLE <span style=\"background: LightGoldenRodYellow; margin: 4px; border: 1px solid khaki\"> (beta#9V4SVN4JQV)</span></td></tr></table><h3>Strengths</h3><table class=\"grid\"><tr><td style=\"display: none\">-</td><td><b>Presentation[x]</b></td><td><b>Basis</b></td></tr><tr><td style=\"display: none\">*</td><td>15 ug<span style=\"background: LightGoldenRodYellow\"> (Details: UCUM code ug = 'ug')</span></td><td>active ingredient - basis of strength <span style=\"background: LightGoldenRodYellow; margin: 4px; border: 1px solid khaki\"> (<a href=\"http://terminology.hl7.org/5.3.0/CodeSystem-v3-RoleClass.html\">RoleClass</a>#ACTIB)</span></td></tr></table></blockquote></div>"
      },
      "identifier" : {
        "use" : "official",
        "system" : "https://gsrs.ncats.nih.gov/ginas/app/beta",
        "value" : "9V4SVN4JQV"
      },
      "status" : "active",
      "for" : [{
        "reference" : "ManufacturedItemDefinition/mid-04c9bd6fb89d38b2d83eced2460c4dc1"
      },
      {
        "reference" : "MedicinalProductDefinition/mpb6ced64d25ea2c8da6c6099386f14db1"
      },
      {
        "reference" : "AdministrableProductDefinition/ap-04c9bd6fb89d38b2d83eced2460c4dc1"
      }],
      "role" : {
        "coding" : [{
          "system" : "https://spor.ema.europa.eu/rmswi",
          "code" : "100000072072",
          "display" : "active"
        }]
      },
      "substance" : {
        "code" : {
          "concept" : {
            "coding" : [{
              "system" : "https://gsrs.ncats.nih.gov/ginas/app/beta",
              "code" : "9V4SVN4JQV",
              "display" : "INFLUENZA A VIRUS A/Delaware/55/2019 CVR-45 (H1N1) WHOLE"
            }]
          }
        },
        "strength" : [{
          "presentationQuantity" : {
            "value" : 15,
            "system" : "http://unitsofmeasure.org",
            "code" : "ug"
          },
          "basis" : {
            "coding" : [{
              "system" : "http://terminology.hl7.org/CodeSystem/v3-RoleClass",
              "code" : "ACTIB",
              "display" : "active ingredient - basis of strength"
            }]
          }
        }]
      }
    }
  },
  {
    "fullUrl" : "http://hl7.eu/fhir/ig/gravitate-health/Ingredient/ingredient-for-flucelvax-influenzaavirusadarwin112021h3n2whole",
    "resource" : {
      "resourceType" : "Ingredient",
      "id" : "ingredient-for-flucelvax-influenzaavirusadarwin112021h3n2whole",
      "meta" : {
        "profile" : ["http://hl7.org/fhir/uv/emedicinal-product-info/StructureDefinition/Ingredient-uv-epi"]
      },
      "text" : {
        "status" : "generated",
        "div" : "<div xmlns=\"http://www.w3.org/1999/xhtml\"><p><b>Generated Narrative: Ingredient</b><a name=\"ingredient-for-flucelvax-influenzaavirusadarwin112021h3n2whole\"> </a></p><div style=\"display: inline-block; background-color: #d9e0e7; padding: 6px; margin: 4px; border: 1px solid #8da1b4; border-radius: 5px; line-height: 60%\"><p style=\"margin-bottom: 0px\">Resource Ingredient &quot;ingredient-for-flucelvax-influenzaavirusadarwin112021h3n2whole&quot; </p><p style=\"margin-bottom: 0px\">Profile: <a href=\"https://build.fhir.org/ig/HL7/emedicinal-product-info//StructureDefinition-Ingredient-uv-epi.html\">Ingredient (ePI)</a></p></div><p><b>identifier</b>: id:\u00a0JS7E5ZZ3AC\u00a0(use:\u00a0OFFICIAL)</p><p><b>status</b>: active</p><p><b>for</b>: </p><ul><li><a href=\"#ManufacturedItemDefinition_mid-04c9bd6fb89d38b2d83eced2460c4dc1\">See above (ManufacturedItemDefinition/mid-04c9bd6fb89d38b2d83eced2460c4dc1)</a></li><li><a href=\"#MedicinalProductDefinition_mpb6ced64d25ea2c8da6c6099386f14db1\">See above (MedicinalProductDefinition/mpb6ced64d25ea2c8da6c6099386f14db1)</a></li><li><a href=\"#AdministrableProductDefinition_ap-04c9bd6fb89d38b2d83eced2460c4dc1\">See above (AdministrableProductDefinition/ap-04c9bd6fb89d38b2d83eced2460c4dc1)</a></li></ul><p><b>role</b>: active <span style=\"background: LightGoldenRodYellow; margin: 4px; border: 1px solid khaki\"> (rmswi#100000072082)</span></p><blockquote><p><b>substance</b></p><h3>Codes</h3><table class=\"grid\"><tr><td style=\"display: none\">-</td><td><b>Concept</b></td></tr><tr><td style=\"display: none\">*</td><td>INFLUENZA A VIRUS A/Darwin/11/2021 (H3N2) WHOLE <span style=\"background: LightGoldenRodYellow; margin: 4px; border: 1px solid khaki\"> (beta#JS7E5ZZ3AC)</span></td></tr></table><h3>Strengths</h3><table class=\"grid\"><tr><td style=\"display: none\">-</td><td><b>Presentation[x]</b></td><td><b>Basis</b></td></tr><tr><td style=\"display: none\">*</td><td>15 ug<span style=\"background: LightGoldenRodYellow\"> (Details: UCUM code ug = 'ug')</span></td><td>active ingredient - basis of strength <span style=\"background: LightGoldenRodYellow; margin: 4px; border: 1px solid khaki\"> (<a href=\"http://terminology.hl7.org/5.3.0/CodeSystem-v3-RoleClass.html\">RoleClass</a>#ACTIB)</span></td></tr></table></blockquote></div>"
      },
      "identifier" : {
        "use" : "official",
        "system" : "https://gsrs.ncats.nih.gov/ginas/app/beta",
        "value" : "JS7E5ZZ3AC"
      },
      "status" : "active",
      "for" : [{
        "reference" : "ManufacturedItemDefinition/mid-04c9bd6fb89d38b2d83eced2460c4dc1"
      },
      {
        "reference" : "MedicinalProductDefinition/mpb6ced64d25ea2c8da6c6099386f14db1"
      },
      {
        "reference" : "AdministrableProductDefinition/ap-04c9bd6fb89d38b2d83eced2460c4dc1"
      }],
      "role" : {
        "coding" : [{
          "system" : "https://spor.ema.europa.eu/rmswi",
          "code" : "100000072082",
          "display" : "active"
        }]
      },
      "substance" : {
        "code" : {
          "concept" : {
            "coding" : [{
              "system" : "https://gsrs.ncats.nih.gov/ginas/app/beta",
              "code" : "JS7E5ZZ3AC",
              "display" : "INFLUENZA A VIRUS A/Darwin/11/2021 (H3N2) WHOLE"
            }]
          }
        },
        "strength" : [{
          "presentationQuantity" : {
            "value" : 15,
            "system" : "http://unitsofmeasure.org",
            "code" : "ug"
          },
          "basis" : {
            "coding" : [{
              "system" : "http://terminology.hl7.org/CodeSystem/v3-RoleClass",
              "code" : "ACTIB",
              "display" : "active ingredient - basis of strength"
            }]
          }
        }]
      }
    }
  },
  {
    "fullUrl" : "http://hl7.eu/fhir/ig/gravitate-health/Ingredient/ingredient-for-f4e520e2974f4acb8abe26b607ea5a46",
    "resource" : {
      "resourceType" : "Ingredient",
      "id" : "ingredient-for-f4e520e2974f4acb8abe26b607ea5a46",
      "meta" : {
        "profile" : ["http://hl7.org/fhir/uv/emedicinal-product-info/StructureDefinition/Ingredient-uv-epi"]
      },
      "text" : {
        "status" : "generated",
        "div" : "<div xmlns=\"http://www.w3.org/1999/xhtml\"><p><b>Generated Narrative: Ingredient</b><a name=\"ingredient-for-f4e520e2974f4acb8abe26b607ea5a46\"> </a></p><div style=\"display: inline-block; background-color: #d9e0e7; padding: 6px; margin: 4px; border: 1px solid #8da1b4; border-radius: 5px; line-height: 60%\"><p style=\"margin-bottom: 0px\">Resource Ingredient &quot;ingredient-for-f4e520e2974f4acb8abe26b607ea5a46&quot; </p><p style=\"margin-bottom: 0px\">Profile: <a href=\"https://build.fhir.org/ig/HL7/emedicinal-product-info//StructureDefinition-Ingredient-uv-epi.html\">Ingredient (ePI)</a></p></div><p><b>identifier</b>: id:\u00a0BFA4LSE5QQ\u00a0(use:\u00a0OFFICIAL)</p><p><b>status</b>: active</p><p><b>for</b>: </p><ul><li><a href=\"#ManufacturedItemDefinition_mid-04c9bd6fb89d38b2d83eced2460c4dc1\">See above (ManufacturedItemDefinition/mid-04c9bd6fb89d38b2d83eced2460c4dc1)</a></li><li><a href=\"#MedicinalProductDefinition_mpb6ced64d25ea2c8da6c6099386f14db1\">See above (MedicinalProductDefinition/mpb6ced64d25ea2c8da6c6099386f14db1)</a></li><li><a href=\"#AdministrableProductDefinition_ap-04c9bd6fb89d38b2d83eced2460c4dc1\">See above (AdministrableProductDefinition/ap-04c9bd6fb89d38b2d83eced2460c4dc1)</a></li></ul><p><b>role</b>: active <span style=\"background: LightGoldenRodYellow; margin: 4px; border: 1px solid khaki\"> (rmswi#100000072082)</span></p><blockquote><p><b>substance</b></p><h3>Codes</h3><table class=\"grid\"><tr><td style=\"display: none\">-</td><td><b>Concept</b></td></tr><tr><td style=\"display: none\">*</td><td>INFLUENZA B VIRUS B/Singapore/WUH4618/2021 WHOLE <span style=\"background: LightGoldenRodYellow; margin: 4px; border: 1px solid khaki\"> (beta#BFA4LSE5QQ)</span></td></tr></table><h3>Strengths</h3><table class=\"grid\"><tr><td style=\"display: none\">-</td><td><b>Presentation[x]</b></td><td><b>Basis</b></td></tr><tr><td style=\"display: none\">*</td><td>15 ug<span style=\"background: LightGoldenRodYellow\"> (Details: UCUM code ug = 'ug')</span></td><td>active ingredient - basis of strength <span style=\"background: LightGoldenRodYellow; margin: 4px; border: 1px solid khaki\"> (<a href=\"http://terminology.hl7.org/5.3.0/CodeSystem-v3-RoleClass.html\">RoleClass</a>#ACTIB)</span></td></tr></table></blockquote></div>"
      },
      "identifier" : {
        "use" : "official",
        "system" : "https://gsrs.ncats.nih.gov/ginas/app/beta",
        "value" : "BFA4LSE5QQ"
      },
      "status" : "active",
      "for" : [{
        "reference" : "ManufacturedItemDefinition/mid-04c9bd6fb89d38b2d83eced2460c4dc1"
      },
      {
        "reference" : "MedicinalProductDefinition/mpb6ced64d25ea2c8da6c6099386f14db1"
      },
      {
        "reference" : "AdministrableProductDefinition/ap-04c9bd6fb89d38b2d83eced2460c4dc1"
      }],
      "role" : {
        "coding" : [{
          "system" : "https://spor.ema.europa.eu/rmswi",
          "code" : "100000072082",
          "display" : "active"
        }]
      },
      "substance" : {
        "code" : {
          "concept" : {
            "coding" : [{
              "system" : "https://gsrs.ncats.nih.gov/ginas/app/beta",
              "code" : "BFA4LSE5QQ",
              "display" : "INFLUENZA B VIRUS B/Singapore/WUH4618/2021 WHOLE"
            }]
          }
        },
        "strength" : [{
          "presentationQuantity" : {
            "value" : 15,
            "system" : "http://unitsofmeasure.org",
            "code" : "ug"
          },
          "basis" : {
            "coding" : [{
              "system" : "http://terminology.hl7.org/CodeSystem/v3-RoleClass",
              "code" : "ACTIB",
              "display" : "active ingredient - basis of strength"
            }]
          }
        }]
      }
    }
  },
  {
    "fullUrl" : "http://hl7.eu/fhir/ig/gravitate-health/Ingredient/ingredient-for-2c0c197a41a706fb2549601e635da1f3",
    "resource" : {
      "resourceType" : "Ingredient",
      "id" : "ingredient-for-2c0c197a41a706fb2549601e635da1f3",
      "meta" : {
        "profile" : ["http://hl7.org/fhir/uv/emedicinal-product-info/StructureDefinition/Ingredient-uv-epi"]
      },
      "text" : {
        "status" : "generated",
        "div" : "<div xmlns=\"http://www.w3.org/1999/xhtml\"><p><b>Generated Narrative: Ingredient</b><a name=\"ingredient-for-2c0c197a41a706fb2549601e635da1f3\"> </a></p><div style=\"display: inline-block; background-color: #d9e0e7; padding: 6px; margin: 4px; border: 1px solid #8da1b4; border-radius: 5px; line-height: 60%\"><p style=\"margin-bottom: 0px\">Resource Ingredient &quot;ingredient-for-2c0c197a41a706fb2549601e635da1f3&quot; </p><p style=\"margin-bottom: 0px\">Profile: <a href=\"https://build.fhir.org/ig/HL7/emedicinal-product-info//StructureDefinition-Ingredient-uv-epi.html\">Ingredient (ePI)</a></p></div><p><b>identifier</b>: id:\u00a0B3EV5T8SUF\u00a0(use:\u00a0OFFICIAL)</p><p><b>status</b>: active</p><p><b>for</b>: </p><ul><li><a href=\"#ManufacturedItemDefinition_mid-04c9bd6fb89d38b2d83eced2460c4dc1\">See above (ManufacturedItemDefinition/mid-04c9bd6fb89d38b2d83eced2460c4dc1)</a></li><li><a href=\"#MedicinalProductDefinition_mpb6ced64d25ea2c8da6c6099386f14db1\">See above (MedicinalProductDefinition/mpb6ced64d25ea2c8da6c6099386f14db1)</a></li><li><a href=\"#AdministrableProductDefinition_ap-04c9bd6fb89d38b2d83eced2460c4dc1\">See above (AdministrableProductDefinition/ap-04c9bd6fb89d38b2d83eced2460c4dc1)</a></li></ul><p><b>role</b>: active <span style=\"background: LightGoldenRodYellow; margin: 4px; border: 1px solid khaki\"> (rmswi#100000072082)</span></p><blockquote><p><b>substance</b></p><h3>Codes</h3><table class=\"grid\"><tr><td style=\"display: none\">-</td><td><b>Concept</b></td></tr><tr><td style=\"display: none\">*</td><td>INFLUENZA B VIRUS B/SINGAPORE/INFTT-16-0610/2016 WHOLE <span style=\"background: LightGoldenRodYellow; margin: 4px; border: 1px solid khaki\"> (beta#B3EV5T8SUF)</span></td></tr></table><h3>Strengths</h3><table class=\"grid\"><tr><td style=\"display: none\">-</td><td><b>Presentation[x]</b></td><td><b>Basis</b></td></tr><tr><td style=\"display: none\">*</td><td>15 ug<span style=\"background: LightGoldenRodYellow\"> (Details: UCUM code ug = 'ug')</span></td><td>active ingredient - basis of strength <span style=\"background: LightGoldenRodYellow; margin: 4px; border: 1px solid khaki\"> (<a href=\"http://terminology.hl7.org/5.3.0/CodeSystem-v3-RoleClass.html\">RoleClass</a>#ACTIB)</span></td></tr></table></blockquote></div>"
      },
      "identifier" : {
        "use" : "official",
        "system" : "https://gsrs.ncats.nih.gov/ginas/app/beta",
        "value" : "B3EV5T8SUF"
      },
      "status" : "active",
      "for" : [{
        "reference" : "ManufacturedItemDefinition/mid-04c9bd6fb89d38b2d83eced2460c4dc1"
      },
      {
        "reference" : "MedicinalProductDefinition/mpb6ced64d25ea2c8da6c6099386f14db1"
      },
      {
        "reference" : "AdministrableProductDefinition/ap-04c9bd6fb89d38b2d83eced2460c4dc1"
      }],
      "role" : {
        "coding" : [{
          "system" : "https://spor.ema.europa.eu/rmswi",
          "code" : "100000072082",
          "display" : "active"
        }]
      },
      "substance" : {
        "code" : {
          "concept" : {
            "coding" : [{
              "system" : "https://gsrs.ncats.nih.gov/ginas/app/beta",
              "code" : "B3EV5T8SUF",
              "display" : "INFLUENZA B VIRUS B/SINGAPORE/INFTT-16-0610/2016 WHOLE"
            }]
          }
        },
        "strength" : [{
          "presentationQuantity" : {
            "value" : 15,
            "system" : "http://unitsofmeasure.org",
            "code" : "ug"
          },
          "basis" : {
            "coding" : [{
              "system" : "http://terminology.hl7.org/CodeSystem/v3-RoleClass",
              "code" : "ACTIB",
              "display" : "active ingredient - basis of strength"
            }]
          }
        }]
      }
    }
  },
  {
    "fullUrl" : "http://hl7.eu/fhir/ig/gravitate-health/Ingredient/ingredient-for-flucelvax-sodiumchloride",
    "resource" : {
      "resourceType" : "Ingredient",
      "id" : "ingredient-for-flucelvax-sodiumchloride",
      "meta" : {
        "profile" : ["http://hl7.org/fhir/uv/emedicinal-product-info/StructureDefinition/Ingredient-uv-epi"]
      },
      "text" : {
        "status" : "generated",
        "div" : "<div xmlns=\"http://www.w3.org/1999/xhtml\"><p><b>Generated Narrative: Ingredient</b><a name=\"ingredient-for-flucelvax-sodiumchloride\"> </a></p><div style=\"display: inline-block; background-color: #d9e0e7; padding: 6px; margin: 4px; border: 1px solid #8da1b4; border-radius: 5px; line-height: 60%\"><p style=\"margin-bottom: 0px\">Resource Ingredient &quot;ingredient-for-flucelvax-sodiumchloride&quot; </p><p style=\"margin-bottom: 0px\">Profile: <a href=\"https://build.fhir.org/ig/HL7/emedicinal-product-info//StructureDefinition-Ingredient-uv-epi.html\">Ingredient (ePI)</a></p></div><p><b>identifier</b>: id:\u00a0451W47IQ8X\u00a0(use:\u00a0OFFICIAL)</p><p><b>status</b>: active</p><p><b>for</b>: </p><ul><li><a href=\"#ManufacturedItemDefinition_mid-04c9bd6fb89d38b2d83eced2460c4dc1\">See above (ManufacturedItemDefinition/mid-04c9bd6fb89d38b2d83eced2460c4dc1)</a></li><li><a href=\"#MedicinalProductDefinition_mpb6ced64d25ea2c8da6c6099386f14db1\">See above (MedicinalProductDefinition/mpb6ced64d25ea2c8da6c6099386f14db1)</a></li><li><a href=\"#AdministrableProductDefinition_ap-04c9bd6fb89d38b2d83eced2460c4dc1\">See above (AdministrableProductDefinition/ap-04c9bd6fb89d38b2d83eced2460c4dc1)</a></li></ul><p><b>role</b>: Excipient <span style=\"background: LightGoldenRodYellow; margin: 4px; border: 1px solid khaki\"> (rmswi#100000072082)</span></p><blockquote><p><b>substance</b></p><h3>Codes</h3><table class=\"grid\"><tr><td style=\"display: none\">-</td><td><b>Concept</b></td></tr><tr><td style=\"display: none\">*</td><td>Sodium chloride <span style=\"background: LightGoldenRodYellow; margin: 4px; border: 1px solid khaki\"> (beta#451W47IQ8X)</span></td></tr></table></blockquote></div>"
      },
      "identifier" : {
        "use" : "official",
        "system" : "https://gsrs.ncats.nih.gov/ginas/app/beta",
        "value" : "451W47IQ8X"
      },
      "status" : "active",
      "for" : [{
        "reference" : "ManufacturedItemDefinition/mid-04c9bd6fb89d38b2d83eced2460c4dc1"
      },
      {
        "reference" : "MedicinalProductDefinition/mpb6ced64d25ea2c8da6c6099386f14db1"
      },
      {
        "reference" : "AdministrableProductDefinition/ap-04c9bd6fb89d38b2d83eced2460c4dc1"
      }],
      "role" : {
        "coding" : [{
          "system" : "https://spor.ema.europa.eu/rmswi",
          "code" : "100000072082",
          "display" : "Excipient"
        }]
      },
      "substance" : {
        "code" : {
          "concept" : {
            "coding" : [{
              "system" : "https://gsrs.ncats.nih.gov/ginas/app/beta",
              "code" : "451W47IQ8X",
              "display" : "Sodium chloride"
            }]
          }
        }
      }
    }
  },
  {
    "fullUrl" : "http://hl7.eu/fhir/ig/gravitate-health/Ingredient/ingredient-for-flucelvax-potassiumchloride",
    "resource" : {
      "resourceType" : "Ingredient",
      "id" : "ingredient-for-flucelvax-potassiumchloride",
      "meta" : {
        "profile" : ["http://hl7.org/fhir/uv/emedicinal-product-info/StructureDefinition/Ingredient-uv-epi"]
      },
      "text" : {
        "status" : "generated",
        "div" : "<div xmlns=\"http://www.w3.org/1999/xhtml\"><p><b>Generated Narrative: Ingredient</b><a name=\"ingredient-for-flucelvax-potassiumchloride\"> </a></p><div style=\"display: inline-block; background-color: #d9e0e7; padding: 6px; margin: 4px; border: 1px solid #8da1b4; border-radius: 5px; line-height: 60%\"><p style=\"margin-bottom: 0px\">Resource Ingredient &quot;ingredient-for-flucelvax-potassiumchloride&quot; </p><p style=\"margin-bottom: 0px\">Profile: <a href=\"https://build.fhir.org/ig/HL7/emedicinal-product-info//StructureDefinition-Ingredient-uv-epi.html\">Ingredient (ePI)</a></p></div><p><b>identifier</b>: id:\u00a0660YQ98I10\u00a0(use:\u00a0OFFICIAL)</p><p><b>status</b>: active</p><p><b>for</b>: </p><ul><li><a href=\"#ManufacturedItemDefinition_mid-04c9bd6fb89d38b2d83eced2460c4dc1\">See above (ManufacturedItemDefinition/mid-04c9bd6fb89d38b2d83eced2460c4dc1)</a></li><li><a href=\"#MedicinalProductDefinition_mpb6ced64d25ea2c8da6c6099386f14db1\">See above (MedicinalProductDefinition/mpb6ced64d25ea2c8da6c6099386f14db1)</a></li><li><a href=\"#AdministrableProductDefinition_ap-04c9bd6fb89d38b2d83eced2460c4dc1\">See above (AdministrableProductDefinition/ap-04c9bd6fb89d38b2d83eced2460c4dc1)</a></li></ul><p><b>role</b>: Excipient <span style=\"background: LightGoldenRodYellow; margin: 4px; border: 1px solid khaki\"> (rmswi#100000072082)</span></p><blockquote><p><b>substance</b></p><h3>Codes</h3><table class=\"grid\"><tr><td style=\"display: none\">-</td><td><b>Concept</b></td></tr><tr><td style=\"display: none\">*</td><td>Potassium chloride <span style=\"background: LightGoldenRodYellow; margin: 4px; border: 1px solid khaki\"> (beta#660YQ98I10)</span></td></tr></table></blockquote></div>"
      },
      "identifier" : {
        "use" : "official",
        "system" : "https://gsrs.ncats.nih.gov/ginas/app/beta",
        "value" : "660YQ98I10"
      },
      "status" : "active",
      "for" : [{
        "reference" : "ManufacturedItemDefinition/mid-04c9bd6fb89d38b2d83eced2460c4dc1"
      },
      {
        "reference" : "MedicinalProductDefinition/mpb6ced64d25ea2c8da6c6099386f14db1"
      },
      {
        "reference" : "AdministrableProductDefinition/ap-04c9bd6fb89d38b2d83eced2460c4dc1"
      }],
      "role" : {
        "coding" : [{
          "system" : "https://spor.ema.europa.eu/rmswi",
          "code" : "100000072082",
          "display" : "Excipient"
        }]
      },
      "substance" : {
        "code" : {
          "concept" : {
            "coding" : [{
              "system" : "https://gsrs.ncats.nih.gov/ginas/app/beta",
              "code" : "660YQ98I10",
              "display" : "Potassium chloride"
            }]
          }
        }
      }
    }
  },
  {
    "fullUrl" : "http://hl7.eu/fhir/ig/gravitate-health/Ingredient/ingredient-for-flucelvax-magnesiumchloride",
    "resource" : {
      "resourceType" : "Ingredient",
      "id" : "ingredient-for-flucelvax-magnesiumchloride",
      "meta" : {
        "profile" : ["http://hl7.org/fhir/uv/emedicinal-product-info/StructureDefinition/Ingredient-uv-epi"]
      },
      "text" : {
        "status" : "generated",
        "div" : "<div xmlns=\"http://www.w3.org/1999/xhtml\"><p><b>Generated Narrative: Ingredient</b><a name=\"ingredient-for-flucelvax-magnesiumchloride\"> </a></p><div style=\"display: inline-block; background-color: #d9e0e7; padding: 6px; margin: 4px; border: 1px solid #8da1b4; border-radius: 5px; line-height: 60%\"><p style=\"margin-bottom: 0px\">Resource Ingredient &quot;ingredient-for-flucelvax-magnesiumchloride&quot; </p><p style=\"margin-bottom: 0px\">Profile: <a href=\"https://build.fhir.org/ig/HL7/emedicinal-product-info//StructureDefinition-Ingredient-uv-epi.html\">Ingredient (ePI)</a></p></div><p><b>identifier</b>: id:\u00a002F3473H9O\u00a0(use:\u00a0OFFICIAL)</p><p><b>status</b>: active</p><p><b>for</b>: </p><ul><li><a href=\"#ManufacturedItemDefinition_mid-04c9bd6fb89d38b2d83eced2460c4dc1\">See above (ManufacturedItemDefinition/mid-04c9bd6fb89d38b2d83eced2460c4dc1)</a></li><li><a href=\"#MedicinalProductDefinition_mpb6ced64d25ea2c8da6c6099386f14db1\">See above (MedicinalProductDefinition/mpb6ced64d25ea2c8da6c6099386f14db1)</a></li><li><a href=\"#AdministrableProductDefinition_ap-04c9bd6fb89d38b2d83eced2460c4dc1\">See above (AdministrableProductDefinition/ap-04c9bd6fb89d38b2d83eced2460c4dc1)</a></li></ul><p><b>role</b>: Excipient <span style=\"background: LightGoldenRodYellow; margin: 4px; border: 1px solid khaki\"> (rmswi#100000072082)</span></p><blockquote><p><b>substance</b></p><h3>Codes</h3><table class=\"grid\"><tr><td style=\"display: none\">-</td><td><b>Concept</b></td></tr><tr><td style=\"display: none\">*</td><td>MAGNESIUM CHLORIDE <span style=\"background: LightGoldenRodYellow; margin: 4px; border: 1px solid khaki\"> (beta#02F3473H9O)</span></td></tr></table></blockquote></div>"
      },
      "identifier" : {
        "use" : "official",
        "system" : "https://gsrs.ncats.nih.gov/ginas/app/beta",
        "value" : "02F3473H9O"
      },
      "status" : "active",
      "for" : [{
        "reference" : "ManufacturedItemDefinition/mid-04c9bd6fb89d38b2d83eced2460c4dc1"
      },
      {
        "reference" : "MedicinalProductDefinition/mpb6ced64d25ea2c8da6c6099386f14db1"
      },
      {
        "reference" : "AdministrableProductDefinition/ap-04c9bd6fb89d38b2d83eced2460c4dc1"
      }],
      "role" : {
        "coding" : [{
          "system" : "https://spor.ema.europa.eu/rmswi",
          "code" : "100000072082",
          "display" : "Excipient"
        }]
      },
      "substance" : {
        "code" : {
          "concept" : {
            "coding" : [{
              "system" : "https://gsrs.ncats.nih.gov/ginas/app/beta",
              "code" : "02F3473H9O",
              "display" : "MAGNESIUM CHLORIDE"
            }]
          }
        }
      }
    }
  },
  {
    "fullUrl" : "http://hl7.eu/fhir/ig/gravitate-health/Ingredient/ingredient-for-flucelvax-sodiumphosphatedibasicdihydrate",
    "resource" : {
      "resourceType" : "Ingredient",
      "id" : "ingredient-for-flucelvax-sodiumphosphatedibasicdihydrate",
      "meta" : {
        "profile" : ["http://hl7.org/fhir/uv/emedicinal-product-info/StructureDefinition/Ingredient-uv-epi"]
      },
      "text" : {
        "status" : "generated",
        "div" : "<div xmlns=\"http://www.w3.org/1999/xhtml\"><p><b>Generated Narrative: Ingredient</b><a name=\"ingredient-for-flucelvax-sodiumphosphatedibasicdihydrate\"> </a></p><div style=\"display: inline-block; background-color: #d9e0e7; padding: 6px; margin: 4px; border: 1px solid #8da1b4; border-radius: 5px; line-height: 60%\"><p style=\"margin-bottom: 0px\">Resource Ingredient &quot;ingredient-for-flucelvax-sodiumphosphatedibasicdihydrate&quot; </p><p style=\"margin-bottom: 0px\">Profile: <a href=\"https://build.fhir.org/ig/HL7/emedicinal-product-info//StructureDefinition-Ingredient-uv-epi.html\">Ingredient (ePI)</a></p></div><p><b>identifier</b>: id:\u00a094255I6E2T\u00a0(use:\u00a0OFFICIAL)</p><p><b>status</b>: active</p><p><b>for</b>: </p><ul><li><a href=\"#ManufacturedItemDefinition_mid-04c9bd6fb89d38b2d83eced2460c4dc1\">See above (ManufacturedItemDefinition/mid-04c9bd6fb89d38b2d83eced2460c4dc1)</a></li><li><a href=\"#MedicinalProductDefinition_mpb6ced64d25ea2c8da6c6099386f14db1\">See above (MedicinalProductDefinition/mpb6ced64d25ea2c8da6c6099386f14db1)</a></li><li><a href=\"#AdministrableProductDefinition_ap-04c9bd6fb89d38b2d83eced2460c4dc1\">See above (AdministrableProductDefinition/ap-04c9bd6fb89d38b2d83eced2460c4dc1)</a></li></ul><p><b>role</b>: Excipient <span style=\"background: LightGoldenRodYellow; margin: 4px; border: 1px solid khaki\"> (rmswi#100000072082)</span></p><blockquote><p><b>substance</b></p><h3>Codes</h3><table class=\"grid\"><tr><td style=\"display: none\">-</td><td><b>Concept</b></td></tr><tr><td style=\"display: none\">*</td><td>SODIUM PHOSPHATE, DIBASIC, DIHYDRATE <span style=\"background: LightGoldenRodYellow; margin: 4px; border: 1px solid khaki\"> (beta#94255I6E2T)</span></td></tr></table></blockquote></div>"
      },
      "identifier" : {
        "use" : "official",
        "system" : "https://gsrs.ncats.nih.gov/ginas/app/beta",
        "value" : "94255I6E2T"
      },
      "status" : "active",
      "for" : [{
        "reference" : "ManufacturedItemDefinition/mid-04c9bd6fb89d38b2d83eced2460c4dc1"
      },
      {
        "reference" : "MedicinalProductDefinition/mpb6ced64d25ea2c8da6c6099386f14db1"
      },
      {
        "reference" : "AdministrableProductDefinition/ap-04c9bd6fb89d38b2d83eced2460c4dc1"
      }],
      "role" : {
        "coding" : [{
          "system" : "https://spor.ema.europa.eu/rmswi",
          "code" : "100000072082",
          "display" : "Excipient"
        }]
      },
      "substance" : {
        "code" : {
          "concept" : {
            "coding" : [{
              "system" : "https://gsrs.ncats.nih.gov/ginas/app/beta",
              "code" : "94255I6E2T",
              "display" : "SODIUM PHOSPHATE, DIBASIC, DIHYDRATE"
            }]
          }
        }
      }
    }
  },
  {
    "fullUrl" : "http://hl7.eu/fhir/ig/gravitate-health/Ingredient/ingredient-for-flucelvax-potassiumdihydrogenphosphate",
    "resource" : {
      "resourceType" : "Ingredient",
      "id" : "ingredient-for-flucelvax-potassiumdihydrogenphosphate",
      "meta" : {
        "profile" : ["http://hl7.org/fhir/uv/emedicinal-product-info/StructureDefinition/Ingredient-uv-epi"]
      },
      "text" : {
        "status" : "generated",
        "div" : "<div xmlns=\"http://www.w3.org/1999/xhtml\"><p><b>Generated Narrative: Ingredient</b><a name=\"ingredient-for-flucelvax-potassiumdihydrogenphosphate\"> </a></p><div style=\"display: inline-block; background-color: #d9e0e7; padding: 6px; margin: 4px; border: 1px solid #8da1b4; border-radius: 5px; line-height: 60%\"><p style=\"margin-bottom: 0px\">Resource Ingredient &quot;ingredient-for-flucelvax-potassiumdihydrogenphosphate&quot; </p><p style=\"margin-bottom: 0px\">Profile: <a href=\"https://build.fhir.org/ig/HL7/emedicinal-product-info//StructureDefinition-Ingredient-uv-epi.html\">Ingredient (ePI)</a></p></div><p><b>identifier</b>: id:\u00a04J9FJ0HL51\u00a0(use:\u00a0OFFICIAL)</p><p><b>status</b>: active</p><p><b>for</b>: </p><ul><li><a href=\"#ManufacturedItemDefinition_mid-04c9bd6fb89d38b2d83eced2460c4dc1\">See above (ManufacturedItemDefinition/mid-04c9bd6fb89d38b2d83eced2460c4dc1)</a></li><li><a href=\"#MedicinalProductDefinition_mpb6ced64d25ea2c8da6c6099386f14db1\">See above (MedicinalProductDefinition/mpb6ced64d25ea2c8da6c6099386f14db1)</a></li><li><a href=\"#AdministrableProductDefinition_ap-04c9bd6fb89d38b2d83eced2460c4dc1\">See above (AdministrableProductDefinition/ap-04c9bd6fb89d38b2d83eced2460c4dc1)</a></li></ul><p><b>role</b>: Excipient <span style=\"background: LightGoldenRodYellow; margin: 4px; border: 1px solid khaki\"> (rmswi#100000072082)</span></p><blockquote><p><b>substance</b></p><h3>Codes</h3><table class=\"grid\"><tr><td style=\"display: none\">-</td><td><b>Concept</b></td></tr><tr><td style=\"display: none\">*</td><td>Potassium dihydrogen phosphate <span style=\"background: LightGoldenRodYellow; margin: 4px; border: 1px solid khaki\"> (beta#4J9FJ0HL51)</span></td></tr></table></blockquote></div>"
      },
      "identifier" : {
        "use" : "official",
        "system" : "https://gsrs.ncats.nih.gov/ginas/app/beta",
        "value" : "4J9FJ0HL51"
      },
      "status" : "active",
      "for" : [{
        "reference" : "ManufacturedItemDefinition/mid-04c9bd6fb89d38b2d83eced2460c4dc1"
      },
      {
        "reference" : "MedicinalProductDefinition/mpb6ced64d25ea2c8da6c6099386f14db1"
      },
      {
        "reference" : "AdministrableProductDefinition/ap-04c9bd6fb89d38b2d83eced2460c4dc1"
      }],
      "role" : {
        "coding" : [{
          "system" : "https://spor.ema.europa.eu/rmswi",
          "code" : "100000072082",
          "display" : "Excipient"
        }]
      },
      "substance" : {
        "code" : {
          "concept" : {
            "coding" : [{
              "system" : "https://gsrs.ncats.nih.gov/ginas/app/beta",
              "code" : "4J9FJ0HL51",
              "display" : "Potassium dihydrogen phosphate"
            }]
          }
        }
      }
    }
  },
  {
    "fullUrl" : "http://hl7.eu/fhir/ig/gravitate-health/Ingredient/ingredient-for-flucelvax-waterforinjections",
    "resource" : {
      "resourceType" : "Ingredient",
      "id" : "ingredient-for-flucelvax-waterforinjections",
      "meta" : {
        "profile" : ["http://hl7.org/fhir/uv/emedicinal-product-info/StructureDefinition/Ingredient-uv-epi"]
      },
      "text" : {
        "status" : "generated",
        "div" : "<div xmlns=\"http://www.w3.org/1999/xhtml\"><p><b>Generated Narrative: Ingredient</b><a name=\"ingredient-for-flucelvax-waterforinjections\"> </a></p><div style=\"display: inline-block; background-color: #d9e0e7; padding: 6px; margin: 4px; border: 1px solid #8da1b4; border-radius: 5px; line-height: 60%\"><p style=\"margin-bottom: 0px\">Resource Ingredient &quot;ingredient-for-flucelvax-waterforinjections&quot; </p><p style=\"margin-bottom: 0px\">Profile: <a href=\"https://build.fhir.org/ig/HL7/emedicinal-product-info//StructureDefinition-Ingredient-uv-epi.html\">Ingredient (ePI)</a></p></div><p><b>identifier</b>: id:\u00a0059QF0KO0R\u00a0(use:\u00a0OFFICIAL)</p><p><b>status</b>: active</p><p><b>for</b>: </p><ul><li><a href=\"#ManufacturedItemDefinition_mid-04c9bd6fb89d38b2d83eced2460c4dc1\">See above (ManufacturedItemDefinition/mid-04c9bd6fb89d38b2d83eced2460c4dc1)</a></li><li><a href=\"#MedicinalProductDefinition_mpb6ced64d25ea2c8da6c6099386f14db1\">See above (MedicinalProductDefinition/mpb6ced64d25ea2c8da6c6099386f14db1)</a></li><li><a href=\"#AdministrableProductDefinition_ap-04c9bd6fb89d38b2d83eced2460c4dc1\">See above (AdministrableProductDefinition/ap-04c9bd6fb89d38b2d83eced2460c4dc1)</a></li></ul><p><b>role</b>: Excipient <span style=\"background: LightGoldenRodYellow; margin: 4px; border: 1px solid khaki\"> (rmswi#100000072082)</span></p><blockquote><p><b>substance</b></p><h3>Codes</h3><table class=\"grid\"><tr><td style=\"display: none\">-</td><td><b>Concept</b></td></tr><tr><td style=\"display: none\">*</td><td>Water for injections <span style=\"background: LightGoldenRodYellow; margin: 4px; border: 1px solid khaki\"> (beta#059QF0KO0R)</span></td></tr></table></blockquote></div>"
      },
      "identifier" : {
        "use" : "official",
        "system" : "https://gsrs.ncats.nih.gov/ginas/app/beta",
        "value" : "059QF0KO0R"
      },
      "status" : "active",
      "for" : [{
        "reference" : "ManufacturedItemDefinition/mid-04c9bd6fb89d38b2d83eced2460c4dc1"
      },
      {
        "reference" : "MedicinalProductDefinition/mpb6ced64d25ea2c8da6c6099386f14db1"
      },
      {
        "reference" : "AdministrableProductDefinition/ap-04c9bd6fb89d38b2d83eced2460c4dc1"
      }],
      "role" : {
        "coding" : [{
          "system" : "https://spor.ema.europa.eu/rmswi",
          "code" : "100000072082",
          "display" : "Excipient"
        }]
      },
      "substance" : {
        "code" : {
          "concept" : {
            "coding" : [{
              "system" : "https://gsrs.ncats.nih.gov/ginas/app/beta",
              "code" : "059QF0KO0R",
              "display" : "Water for injections"
            }]
          }
        }
      }
    }
  },
  {
    "fullUrl" : "http://hl7.eu/fhir/ig/gravitate-health/SubstanceDefinition/substance-influenzaavirusadelaware552019cvr45h1n1whole",
    "resource" : {
      "resourceType" : "SubstanceDefinition",
      "id" : "substance-influenzaavirusadelaware552019cvr45h1n1whole",
      "meta" : {
        "profile" : ["http://hl7.org/fhir/uv/emedicinal-product-info/StructureDefinition/SubstanceDefinition-uv-epi"]
      },
      "text" : {
        "status" : "generated",
        "div" : "<div xmlns=\"http://www.w3.org/1999/xhtml\"><p><b>Generated Narrative: SubstanceDefinition</b><a name=\"substance-influenzaavirusadelaware552019cvr45h1n1whole\"> </a></p><div style=\"display: inline-block; background-color: #d9e0e7; padding: 6px; margin: 4px; border: 1px solid #8da1b4; border-radius: 5px; line-height: 60%\"><p style=\"margin-bottom: 0px\">Resource SubstanceDefinition &quot;substance-influenzaavirusadelaware552019cvr45h1n1whole&quot; </p><p style=\"margin-bottom: 0px\">Profile: <a href=\"https://build.fhir.org/ig/HL7/emedicinal-product-info//StructureDefinition-SubstanceDefinition-uv-epi.html\">SubstanceDefinition (ePI)</a></p></div><p><b>identifier</b>: id:\u00a09V4SVN4JQV\u00a0(use:\u00a0OFFICIAL)</p><p><b>version</b>: 1.0</p><p><b>status</b>: Active <span style=\"background: LightGoldenRodYellow; margin: 4px; border: 1px solid khaki\"> (<a href=\"http://hl7.org/fhir/R5/codesystem-publication-status.html\">PublicationStatus</a>#active)</span></p><p><b>manufacturer</b>: <a href=\"#Organization_mah-45fe50eae508b5755dd140ab2093eb5e\">See above (Organization/mah-45fe50eae508b5755dd140ab2093eb5e)</a></p></div>"
      },
      "identifier" : [{
        "use" : "official",
        "system" : "https://gsrs.ncats.nih.gov/ginas/app/beta/",
        "value" : "9V4SVN4JQV"
      }],
      "version" : "1.0",
      "status" : {
        "coding" : [{
          "system" : "http://hl7.org/fhir/publication-status",
          "code" : "active"
        }]
      },
      "manufacturer" : [{
        "reference" : "Organization/mah-45fe50eae508b5755dd140ab2093eb5e"
      }]
    }
  },
  {
    "fullUrl" : "http://hl7.eu/fhir/ig/gravitate-health/SubstanceDefinition/substance-influenzaavirusadarwin112021h3n2whole",
    "resource" : {
      "resourceType" : "SubstanceDefinition",
      "id" : "substance-influenzaavirusadarwin112021h3n2whole",
      "meta" : {
        "profile" : ["http://hl7.org/fhir/uv/emedicinal-product-info/StructureDefinition/SubstanceDefinition-uv-epi"]
      },
      "text" : {
        "status" : "generated",
        "div" : "<div xmlns=\"http://www.w3.org/1999/xhtml\"><p><b>Generated Narrative: SubstanceDefinition</b><a name=\"substance-influenzaavirusadarwin112021h3n2whole\"> </a></p><div style=\"display: inline-block; background-color: #d9e0e7; padding: 6px; margin: 4px; border: 1px solid #8da1b4; border-radius: 5px; line-height: 60%\"><p style=\"margin-bottom: 0px\">Resource SubstanceDefinition &quot;substance-influenzaavirusadarwin112021h3n2whole&quot; </p><p style=\"margin-bottom: 0px\">Profile: <a href=\"https://build.fhir.org/ig/HL7/emedicinal-product-info//StructureDefinition-SubstanceDefinition-uv-epi.html\">SubstanceDefinition (ePI)</a></p></div><p><b>identifier</b>: id:\u00a0JS7E5ZZ3AC\u00a0(use:\u00a0OFFICIAL)</p><p><b>status</b>: Active <span style=\"background: LightGoldenRodYellow; margin: 4px; border: 1px solid khaki\"> (<a href=\"http://hl7.org/fhir/R5/codesystem-publication-status.html\">PublicationStatus</a>#active)</span></p><p><b>manufacturer</b>: <a href=\"#Organization_mah-45fe50eae508b5755dd140ab2093eb5e\">See above (Organization/mah-45fe50eae508b5755dd140ab2093eb5e)</a></p></div>"
      },
      "identifier" : [{
        "use" : "official",
        "system" : "https://gsrs.ncats.nih.gov/ginas/app/beta/",
        "value" : "JS7E5ZZ3AC"
      }],
      "status" : {
        "coding" : [{
          "system" : "http://hl7.org/fhir/publication-status",
          "code" : "active"
        }]
      },
      "manufacturer" : [{
        "reference" : "Organization/mah-45fe50eae508b5755dd140ab2093eb5e"
      }]
    }
  },
  {
    "fullUrl" : "http://hl7.eu/fhir/ig/gravitate-health/SubstanceDefinition/substance-influenzabvirusbsingaporewuh46182021whole",
    "resource" : {
      "resourceType" : "SubstanceDefinition",
      "id" : "substance-influenzabvirusbsingaporewuh46182021whole",
      "meta" : {
        "profile" : ["http://hl7.org/fhir/uv/emedicinal-product-info/StructureDefinition/SubstanceDefinition-uv-epi"]
      },
      "text" : {
        "status" : "generated",
        "div" : "<div xmlns=\"http://www.w3.org/1999/xhtml\"><p><b>Generated Narrative: SubstanceDefinition</b><a name=\"substance-influenzabvirusbsingaporewuh46182021whole\"> </a></p><div style=\"display: inline-block; background-color: #d9e0e7; padding: 6px; margin: 4px; border: 1px solid #8da1b4; border-radius: 5px; line-height: 60%\"><p style=\"margin-bottom: 0px\">Resource SubstanceDefinition &quot;substance-influenzabvirusbsingaporewuh46182021whole&quot; </p><p style=\"margin-bottom: 0px\">Profile: <a href=\"https://build.fhir.org/ig/HL7/emedicinal-product-info//StructureDefinition-SubstanceDefinition-uv-epi.html\">SubstanceDefinition (ePI)</a></p></div><p><b>identifier</b>: id:\u00a0BFA4LSE5QQ\u00a0(use:\u00a0OFFICIAL)</p><p><b>status</b>: Active <span style=\"background: LightGoldenRodYellow; margin: 4px; border: 1px solid khaki\"> (<a href=\"http://hl7.org/fhir/R5/codesystem-publication-status.html\">PublicationStatus</a>#active)</span></p><p><b>manufacturer</b>: <a href=\"#Organization_mah-45fe50eae508b5755dd140ab2093eb5e\">See above (Organization/mah-45fe50eae508b5755dd140ab2093eb5e)</a></p></div>"
      },
      "identifier" : [{
        "use" : "official",
        "system" : "https://gsrs.ncats.nih.gov/ginas/app/beta/",
        "value" : "BFA4LSE5QQ"
      }],
      "status" : {
        "coding" : [{
          "system" : "http://hl7.org/fhir/publication-status",
          "code" : "active"
        }]
      },
      "manufacturer" : [{
        "reference" : "Organization/mah-45fe50eae508b5755dd140ab2093eb5e"
      }]
    }
  },
  {
    "fullUrl" : "http://hl7.eu/fhir/ig/gravitate-health/SubstanceDefinition/substance-influenzabvirusbsingaporeinftt1606102016whole",
    "resource" : {
      "resourceType" : "SubstanceDefinition",
      "id" : "substance-influenzabvirusbsingaporeinftt1606102016whole",
      "meta" : {
        "profile" : ["http://hl7.org/fhir/uv/emedicinal-product-info/StructureDefinition/SubstanceDefinition-uv-epi"]
      },
      "text" : {
        "status" : "generated",
        "div" : "<div xmlns=\"http://www.w3.org/1999/xhtml\"><p><b>Generated Narrative: SubstanceDefinition</b><a name=\"substance-influenzabvirusbsingaporeinftt1606102016whole\"> </a></p><div style=\"display: inline-block; background-color: #d9e0e7; padding: 6px; margin: 4px; border: 1px solid #8da1b4; border-radius: 5px; line-height: 60%\"><p style=\"margin-bottom: 0px\">Resource SubstanceDefinition &quot;substance-influenzabvirusbsingaporeinftt1606102016whole&quot; </p><p style=\"margin-bottom: 0px\">Profile: <a href=\"https://build.fhir.org/ig/HL7/emedicinal-product-info//StructureDefinition-SubstanceDefinition-uv-epi.html\">SubstanceDefinition (ePI)</a></p></div><p><b>identifier</b>: id:\u00a0B3EV5T8SUF\u00a0(use:\u00a0OFFICIAL)</p><p><b>status</b>: Active <span style=\"background: LightGoldenRodYellow; margin: 4px; border: 1px solid khaki\"> (<a href=\"http://hl7.org/fhir/R5/codesystem-publication-status.html\">PublicationStatus</a>#active)</span></p><p><b>manufacturer</b>: <a href=\"#Organization_mah-45fe50eae508b5755dd140ab2093eb5e\">See above (Organization/mah-45fe50eae508b5755dd140ab2093eb5e)</a></p></div>"
      },
      "identifier" : [{
        "use" : "official",
        "system" : "https://gsrs.ncats.nih.gov/ginas/app/beta/",
        "value" : "B3EV5T8SUF"
      }],
      "status" : {
        "coding" : [{
          "system" : "http://hl7.org/fhir/publication-status",
          "code" : "active"
        }]
      },
      "manufacturer" : [{
        "reference" : "Organization/mah-45fe50eae508b5755dd140ab2093eb5e"
      }]
    }
  },
  {
    "fullUrl" : "http://hl7.eu/fhir/ig/gravitate-health/AdministrableProductDefinition/ap-04c9bd6fb89d38b2d83eced2460c4dc1",
    "resource" : {
      "resourceType" : "AdministrableProductDefinition",
      "id" : "ap-04c9bd6fb89d38b2d83eced2460c4dc1",
      "meta" : {
        "profile" : ["http://hl7.org/fhir/uv/emedicinal-product-info/StructureDefinition/AdministrableProductDefinition-uv-epi"]
      },
      "text" : {
        "status" : "generated",
        "div" : "<div xmlns=\"http://www.w3.org/1999/xhtml\"><p><b>Generated Narrative: AdministrableProductDefinition</b><a name=\"ap-04c9bd6fb89d38b2d83eced2460c4dc1\"> </a></p><div style=\"display: inline-block; background-color: #d9e0e7; padding: 6px; margin: 4px; border: 1px solid #8da1b4; border-radius: 5px; line-height: 60%\"><p style=\"margin-bottom: 0px\">Resource AdministrableProductDefinition &quot;ap-04c9bd6fb89d38b2d83eced2460c4dc1&quot; </p><p style=\"margin-bottom: 0px\">Profile: <a href=\"https://build.fhir.org/ig/HL7/emedicinal-product-info//StructureDefinition-AdministrableProductDefinition-uv-epi.html\">AdministrableProductDefinition (ePI)</a></p></div><p><b>identifier</b>: id:\u00a0xx</p><p><b>status</b>: active</p><p><b>formOf</b>: <a href=\"#MedicinalProductDefinition_mpb6ced64d25ea2c8da6c6099386f14db1\">See above (MedicinalProductDefinition/mpb6ced64d25ea2c8da6c6099386f14db1)</a></p><p><b>administrableDoseForm</b>: suspension for injection in pre-filled syringe <span style=\"background: LightGoldenRodYellow; margin: 4px; border: 1px solid khaki\"> (rmswi#100000074063)</span></p><p><b>unitOfPresentation</b>: Syringe <span style=\"background: LightGoldenRodYellow; margin: 4px; border: 1px solid khaki\"> (rmswi#200000002150)</span></p><p><b>producedFrom</b>: <a href=\"#ManufacturedItemDefinition_mid-04c9bd6fb89d38b2d83eced2460c4dc1\">See above (ManufacturedItemDefinition/mid-04c9bd6fb89d38b2d83eced2460c4dc1)</a></p><blockquote><p><b>routeOfAdministration</b></p><p><b>code</b>: Subcutaneous use <span style=\"background: LightGoldenRodYellow; margin: 4px; border: 1px solid khaki\"> (rmswi#100000073633)</span></p><h3>TargetSpecies</h3><table class=\"grid\"><tr><td style=\"display: none\">-</td><td><b>Code</b></td></tr><tr><td style=\"display: none\">*</td><td>Human <span style=\"background: LightGoldenRodYellow; margin: 4px; border: 1px solid khaki\"> (rmswi#100000109093)</span></td></tr></table></blockquote></div>"
      },
      "identifier" : [{
        "system" : "https://spor.ema.europa.eu/pmswi",
        "value" : "xx"
      }],
      "status" : "active",
      "formOf" : [{
        "reference" : "MedicinalProductDefinition/mpb6ced64d25ea2c8da6c6099386f14db1"
      }],
      "administrableDoseForm" : {
        "coding" : [{
          "system" : "https://spor.ema.europa.eu/rmswi",
          "code" : "100000074063",
          "display" : "suspension for injection in pre-filled syringe"
        }]
      },
      "unitOfPresentation" : {
        "coding" : [{
          "system" : "https://spor.ema.europa.eu/rmswi",
          "code" : "200000002150",
          "display" : "Syringe"
        }]
      },
      "producedFrom" : [{
        "reference" : "ManufacturedItemDefinition/mid-04c9bd6fb89d38b2d83eced2460c4dc1"
      }],
      "routeOfAdministration" : [{
        "code" : {
          "coding" : [{
            "system" : "https://spor.ema.europa.eu/rmswi",
            "code" : "100000073633",
            "display" : "Subcutaneous use"
          }]
        },
        "targetSpecies" : [{
          "code" : {
            "coding" : [{
              "system" : "https://spor.ema.europa.eu/rmswi",
              "code" : "100000109093",
              "display" : "Human"
            }]
          }
        }]
      }]
    }
  },
  {
    "fullUrl" : "http://hl7.eu/fhir/ig/gravitate-health/RegulatedAuthorization/authorization04c9bd6fb89d38b2d83eced2460c4dc10",
    "resource" : {
      "resourceType" : "RegulatedAuthorization",
      "id" : "authorization04c9bd6fb89d38b2d83eced2460c4dc10",
      "meta" : {
        "profile" : ["http://hl7.org/fhir/uv/emedicinal-product-info/StructureDefinition/RegulatedAuthorization-uv-epi"]
      },
      "text" : {
        "status" : "generated",
        "div" : "<div xmlns=\"http://www.w3.org/1999/xhtml\"><p><b>Generated Narrative: RegulatedAuthorization</b><a name=\"authorization04c9bd6fb89d38b2d83eced2460c4dc10\"> </a></p><div style=\"display: inline-block; background-color: #d9e0e7; padding: 6px; margin: 4px; border: 1px solid #8da1b4; border-radius: 5px; line-height: 60%\"><p style=\"margin-bottom: 0px\">Resource RegulatedAuthorization &quot;authorization04c9bd6fb89d38b2d83eced2460c4dc10&quot; </p><p style=\"margin-bottom: 0px\">Profile: <a href=\"https://build.fhir.org/ig/HL7/emedicinal-product-info//StructureDefinition-RegulatedAuthorization-uv-epi.html\">RegulatedAuthorization (ePI)</a></p></div><p><b>identifier</b>: id:\u00a0EU/1/18/1326/001\u00a0(use:\u00a0OFFICIAL)</p><p><b>subject</b>: <a href=\"#MedicinalProductDefinition_mpb6ced64d25ea2c8da6c6099386f14db1\">See above (MedicinalProductDefinition/mpb6ced64d25ea2c8da6c6099386f14db1)</a></p><p><b>type</b>: Marketing Authorisation <span style=\"background: LightGoldenRodYellow; margin: 4px; border: 1px solid khaki\"> (rmswi#100000072062)</span></p><p><b>status</b>: Active <span style=\"background: LightGoldenRodYellow; margin: 4px; border: 1px solid khaki\"> (<a href=\"http://hl7.org/fhir/R5/codesystem-publication-status.html\">PublicationStatus</a>#active)</span></p><p><b>statusDate</b>: 2019-01-01</p><p><b>holder</b>: <a href=\"#Organization_mah-45fe50eae508b5755dd140ab2093eb5e\">See above (Organization/mah-45fe50eae508b5755dd140ab2093eb5e)</a></p></div>"
      },
      "identifier" : [{
        "use" : "official",
        "system" : "https://spor.ema.europa.eu/pmswi",
        "value" : "EU/1/18/1326/001"
      }],
      "subject" : [{
        "reference" : "MedicinalProductDefinition/mpb6ced64d25ea2c8da6c6099386f14db1"
      }],
      "type" : {
        "coding" : [{
          "system" : "https://spor.ema.europa.eu/rmswi",
          "code" : "100000072062",
          "display" : "Marketing Authorisation"
        }]
      },
      "status" : {
        "coding" : [{
          "system" : "http://hl7.org/fhir/publication-status",
          "code" : "active",
          "display" : "Active"
        }]
      },
      "statusDate" : "2019-01-01",
      "holder" : {
        "reference" : "Organization/mah-45fe50eae508b5755dd140ab2093eb5e"
      }
    }
  },
  {
    "fullUrl" : "http://hl7.eu/fhir/ig/gravitate-health/Organization/mah-45fe50eae508b5755dd140ab2093eb5e",
    "resource" : {
      "resourceType" : "Organization",
      "id" : "mah-45fe50eae508b5755dd140ab2093eb5e",
      "meta" : {
        "profile" : ["http://hl7.org/fhir/uv/emedicinal-product-info/StructureDefinition/Organization-uv-epi"]
      },
      "text" : {
        "status" : "generated",
        "div" : "<div xmlns=\"http://www.w3.org/1999/xhtml\"><p><b>Generated Narrative: Organization</b><a name=\"mah-45fe50eae508b5755dd140ab2093eb5e\"> </a></p><div style=\"display: inline-block; background-color: #d9e0e7; padding: 6px; margin: 4px; border: 1px solid #8da1b4; border-radius: 5px; line-height: 60%\"><p style=\"margin-bottom: 0px\">Resource Organization &quot;mah-45fe50eae508b5755dd140ab2093eb5e&quot; </p><p style=\"margin-bottom: 0px\">Profile: <a href=\"https://build.fhir.org/ig/HL7/emedicinal-product-info//StructureDefinition-Organization-uv-epi.html\">Organization (ePI)</a></p></div><p><b>identifier</b>: id:\u00a0ORG-100013715\u00a0(use:\u00a0OFFICIAL)</p><p><b>active</b>: true</p><p><b>type</b>: Marketing authorisation holder <span style=\"background: LightGoldenRodYellow; margin: 4px; border: 1px solid khaki\"> (rmswi#220000000034)</span></p><p><b>name</b>: Seqirus Netherlands B.V.</p><h3>Contacts</h3><table class=\"grid\"><tr><td style=\"display: none\">-</td><td><b>Address</b></td></tr><tr><td style=\"display: none\">*</td><td>Paasheuvelweg 28 1105BJ Amsterdam Netherlands(WORK)</td></tr></table></div>"
      },
      "identifier" : [{
        "use" : "official",
        "system" : "https://spor.ema.europa.eu/omswi",
        "value" : "ORG-100013715"
      }],
      "active" : true,
      "type" : [{
        "coding" : [{
          "system" : "https://spor.ema.europa.eu/rmswi",
          "code" : "220000000034",
          "display" : "Marketing authorisation holder"
        }]
      }],
      "name" : "Seqirus Netherlands B.V.",
      "contact" : [{
        "address" : {
          "use" : "work",
          "type" : "physical",
          "text" : "Paasheuvelweg 28 1105BJ Amsterdam Netherlands",
          "line" : ["Paasheuvelweg 28"],
          "city" : "1105BJ Amsterdam",
          "postalCode" : "367061",
          "country" : "Netherlands"
        }
      }]
    }
  },
  {
    "fullUrl" : "http://hl7.eu/fhir/ig/gravitate-health/PackagedProductDefinition/ppd-a854b6fee6a8536c78c604a4b9f6c395",
    "resource" : {
      "resourceType" : "PackagedProductDefinition",
      "id" : "ppd-a854b6fee6a8536c78c604a4b9f6c395",
      "meta" : {
        "profile" : ["http://hl7.org/fhir/uv/emedicinal-product-info/StructureDefinition/PackagedProductDefinition-uv-epi"]
      },
      "text" : {
        "status" : "generated",
        "div" : "<div xmlns=\"http://www.w3.org/1999/xhtml\"><p><b>Generated Narrative: PackagedProductDefinition</b><a name=\"ppd-a854b6fee6a8536c78c604a4b9f6c395\"> </a></p><div style=\"display: inline-block; background-color: #d9e0e7; padding: 6px; margin: 4px; border: 1px solid #8da1b4; border-radius: 5px; line-height: 60%\"><p style=\"margin-bottom: 0px\">Resource PackagedProductDefinition &quot;ppd-a854b6fee6a8536c78c604a4b9f6c395&quot; </p><p style=\"margin-bottom: 0px\">Profile: <a href=\"https://build.fhir.org/ig/HL7/emedicinal-product-info//StructureDefinition-PackagedProductDefinition-uv-epi.html\">PackagedProductDefinition (ePI)</a></p></div><p><b>name</b>: Flucelvax Tetra - suspension for injection in pre-filled syringe\nInfluenza vaccine (surface antigen, inactivated, prepared in cell cultures) 1</p><p><b>type</b>: 100000155527 <span style=\"background: LightGoldenRodYellow; margin: 4px; border: 1px solid khaki\"> (rmswi#100000155527)</span></p><p><b>packageFor</b>: <a href=\"#MedicinalProductDefinition_mpb6ced64d25ea2c8da6c6099386f14db1\">See above (MedicinalProductDefinition/mpb6ced64d25ea2c8da6c6099386f14db1)</a></p><p><b>status</b>: Active <span style=\"background: LightGoldenRodYellow; margin: 4px; border: 1px solid khaki\"> (<a href=\"http://hl7.org/fhir/R5/codesystem-publication-status.html\">PublicationStatus</a>#active)</span></p><p><b>statusDate</b>: 2019-01-01</p><p><b>containedItemQuantity</b>: 15 ug<span style=\"background: LightGoldenRodYellow\"> (Details: UCUM code ug = 'ug')</span></p><p><b>copackagedIndicator</b>: true</p><blockquote><p><b>packaging</b></p><p><b>type</b>: Box <span style=\"background: LightGoldenRodYellow; margin: 4px; border: 1px solid khaki\"> (rmswi#100000073498)</span></p><p><b>quantity</b>: 1</p><p><b>material</b>: Cardboard <span style=\"background: LightGoldenRodYellow; margin: 4px; border: 1px solid khaki\"> (rmswi#200000003529)</span></p><blockquote><p><b>packaging</b></p><p><b>identifier</b>: id:\u00a0xxxx</p><p><b>type</b>: 100000073498 <span style=\"background: LightGoldenRodYellow; margin: 4px; border: 1px solid khaki\"> (rmswi#100000073498)</span></p><p><b>quantity</b>: 1</p><p><b>material</b>: Cardboard <span style=\"background: LightGoldenRodYellow; margin: 4px; border: 1px solid khaki\"> (rmswi#200000003529)</span></p><blockquote><p><b>containedItem</b></p></blockquote></blockquote></blockquote></div>"
      },
      "name" : "Flucelvax Tetra - suspension for injection in pre-filled syringe\nInfluenza vaccine (surface antigen, inactivated, prepared in cell cultures) 1",
      "type" : {
        "coding" : [{
          "system" : "https://spor.ema.europa.eu/rmswi",
          "code" : "100000155527"
        }]
      },
      "packageFor" : [{
        "reference" : "MedicinalProductDefinition/mpb6ced64d25ea2c8da6c6099386f14db1"
      }],
      "status" : {
        "coding" : [{
          "system" : "http://hl7.org/fhir/publication-status",
          "code" : "active",
          "display" : "Active"
        }]
      },
      "statusDate" : "2019-01-01",
      "containedItemQuantity" : [{
        "value" : 15,
        "system" : "http://unitsofmeasure.org",
        "code" : "ug"
      }],
      "copackagedIndicator" : true,
      "packaging" : {
        "type" : {
          "coding" : [{
            "system" : "https://spor.ema.europa.eu/rmswi",
            "code" : "100000073498",
            "display" : "Box"
          }]
        },
        "quantity" : 1,
        "material" : [{
          "coding" : [{
            "system" : "https://spor.ema.europa.eu/rmswi",
            "code" : "200000003529",
            "display" : "Cardboard"
          }]
        }],
        "packaging" : [{
          "identifier" : [{
            "system" : "https://spor.ema.europa.eu/pmswi",
            "value" : "xxxx"
          }],
          "type" : {
            "coding" : [{
              "system" : "https://spor.ema.europa.eu/rmswi",
              "code" : "100000073498",
              "display" : "100000073498"
            }]
          },
          "quantity" : 1,
          "material" : [{
            "coding" : [{
              "system" : "https://spor.ema.europa.eu/rmswi",
              "code" : "200000003529",
              "display" : "Cardboard"
            }]
          }],
          "containedItem" : [{
            "item" : {
              "reference" : {
                "reference" : "ManufacturedItemDefinition/mid-04c9bd6fb89d38b2d83eced2460c4dc1"
              }
            }
          }]
        }]
      }
    }
  },
  {
    "fullUrl" : "http://hl7.eu/fhir/ig/gravitate-health/MedicinalProductDefinition/mpb6ced64d25ea2c8da6c6099386f14db1",
    "resource" : {
      "resourceType" : "MedicinalProductDefinition",
      "id" : "mpb6ced64d25ea2c8da6c6099386f14db1",
      "meta" : {
        "profile" : ["http://hl7.org/fhir/uv/emedicinal-product-info/StructureDefinition/MedicinalProductDefinition-uv-epi"]
      },
      "text" : {
        "status" : "generated",
        "div" : "<div xmlns=\"http://www.w3.org/1999/xhtml\"><p><b>Generated Narrative: MedicinalProductDefinition</b><a name=\"mpb6ced64d25ea2c8da6c6099386f14db1\"> </a></p><div style=\"display: inline-block; background-color: #d9e0e7; padding: 6px; margin: 4px; border: 1px solid #8da1b4; border-radius: 5px; line-height: 60%\"><p style=\"margin-bottom: 0px\">Resource MedicinalProductDefinition &quot;mpb6ced64d25ea2c8da6c6099386f14db1&quot; </p><p style=\"margin-bottom: 0px\">Profile: <a href=\"https://build.fhir.org/ig/HL7/emedicinal-product-info//StructureDefinition-MedicinalProductDefinition-uv-epi.html\">MedicinalProductDefinition (ePI)</a></p></div><p><b>identifier</b>: id:\u00a0EU/1/18/1326/001, id:\u00a00xF79CABF272B6A7EEF104DDDA44E82717</p><p><b>type</b>: Medicinal Product <span style=\"background: LightGoldenRodYellow; margin: 4px; border: 1px solid khaki\"> (<a href=\"http://hl7.org/fhir/R5/codesystem-medicinal-product-type.html\">Medicinal Product Type</a>#MedicinalProduct)</span></p><p><b>domain</b>: Human use <span style=\"background: LightGoldenRodYellow; margin: 4px; border: 1px solid khaki\"> (<a href=\"http://hl7.org/fhir/R5/codesystem-medicinal-product-domain.html\">Medicinal Product Domain</a>#Human)</span></p><p><b>status</b>: active <span style=\"background: LightGoldenRodYellow; margin: 4px; border: 1px solid khaki\"> (<a href=\"http://hl7.org/fhir/R5/codesystem-publication-status.html\">PublicationStatus</a>#active)</span></p><p><b>legalStatusOfSupply</b>: Medicinal product subject to medical prescription <span style=\"background: LightGoldenRodYellow; margin: 4px; border: 1px solid khaki\"> (rmswi#100000000000)</span></p><blockquote><p><b>name</b></p><p><b>productName</b>: Flucelvax Tetra - suspension for injection in pre-filled syringe\nInfluenza vaccine (surface antigen, inactivated, prepared in cell cultures)</p><p><b>type</b>: Full name <span style=\"background: LightGoldenRodYellow; margin: 4px; border: 1px solid khaki\"> (220000000000#220000000001)</span></p><blockquote><p><b>part</b></p><p><b>part</b>: Flucelvax Tetra</p><p><b>type</b>: Invented name part <span style=\"background: LightGoldenRodYellow; margin: 4px; border: 1px solid khaki\"> (220000000000#220000000002)</span></p></blockquote><blockquote><p><b>part</b></p><p><b>part</b>: Influenza vaccine (surface antigen, inactivated, prepared in cell cultures)</p><p><b>type</b>: Scientific name part <span style=\"background: LightGoldenRodYellow; margin: 4px; border: 1px solid khaki\"> (220000000000#220000000003)</span></p></blockquote><blockquote><p><b>part</b></p><p><b>part</b>: 15 ug</p><p><b>type</b>: Strength part <span style=\"background: LightGoldenRodYellow; margin: 4px; border: 1px solid khaki\"> (220000000000#220000000004)</span></p></blockquote><blockquote><p><b>part</b></p><p><b>part</b>: Solution for injection</p><p><b>type</b>: Pharmaceutical dose form part <span style=\"background: LightGoldenRodYellow; margin: 4px; border: 1px solid khaki\"> (220000000000#220000000005)</span></p></blockquote><h3>Usages</h3><table class=\"grid\"><tr><td style=\"display: none\">-</td><td><b>Country</b></td><td><b>Jurisdiction</b></td><td><b>Language</b></td></tr><tr><td style=\"display: none\">*</td><td>Spain <span style=\"background: LightGoldenRodYellow; margin: 4px; border: 1px solid khaki\"> (<a href=\"http://terminology.hl7.org/5.3.0/CodeSystem-ISO3166Part1.html\">ISO 3166-1 Codes for the representation of names of countries and their subdivisions  Part 1: Country code</a>#ES)</span></td><td>Spain <span style=\"background: LightGoldenRodYellow; margin: 4px; border: 1px solid khaki\"> (<a href=\"http://terminology.hl7.org/5.3.0/CodeSystem-ISO3166Part1.html\">ISO 3166-1 Codes for the representation of names of countries and their subdivisions  Part 1: Country code</a>#ES)</span></td><td>English <span style=\"background: LightGoldenRodYellow; margin: 4px; border: 1px solid khaki\"> (<a href=\"http://terminology.hl7.org/5.3.0/CodeSystem-v3-ietf3066.html\">Tags for the Identification of Languages</a>#en)</span></td></tr></table></blockquote></div>"
      },
      "identifier" : [{
        "system" : "https://spor.ema.europa.eu/pmswi",
        "value" : "EU/1/18/1326/001"
      },
      {
        "system" : "https://www.who-umc.org/phpid",
        "value" : "0xF79CABF272B6A7EEF104DDDA44E82717"
      }],
      "type" : {
        "coding" : [{
          "system" : "http://hl7.org/fhir/medicinal-product-type",
          "code" : "MedicinalProduct",
          "display" : "Medicinal Product"
        }]
      },
      "domain" : {
        "coding" : [{
          "system" : "http://hl7.org/fhir/medicinal-product-domain",
          "code" : "Human",
          "display" : "Human use"
        }]
      },
      "status" : {
        "coding" : [{
          "system" : "http://hl7.org/fhir/publication-status",
          "code" : "active",
          "display" : "active"
        }]
      },
      "legalStatusOfSupply" : {
        "coding" : [{
          "system" : "https://spor.ema.europa.eu/rmswi",
          "code" : "100000000000",
          "display" : "Medicinal product subject to medical prescription"
        }]
      },
      "name" : [{
        "productName" : "Flucelvax Tetra - suspension for injection in pre-filled syringe\nInfluenza vaccine (surface antigen, inactivated, prepared in cell cultures)",
        "type" : {
          "coding" : [{
            "system" : "https://spor.ema.europa.eu/lists/220000000000",
            "code" : "220000000001",
            "display" : "Full name"
          }]
        },
        "part" : [{
          "part" : "Flucelvax Tetra",
          "type" : {
            "coding" : [{
              "system" : "https://spor.ema.europa.eu/lists/220000000000",
              "code" : "220000000002",
              "display" : "Invented name part"
            }]
          }
        },
        {
          "part" : "Influenza vaccine (surface antigen, inactivated, prepared in cell cultures)",
          "type" : {
            "coding" : [{
              "system" : "https://spor.ema.europa.eu/lists/220000000000",
              "code" : "220000000003",
              "display" : "Scientific name part"
            }]
          }
        },
        {
          "part" : "15 ug",
          "type" : {
            "coding" : [{
              "system" : "https://spor.ema.europa.eu/lists/220000000000",
              "code" : "220000000004",
              "display" : "Strength part"
            }]
          }
        },
        {
          "part" : "Solution for injection",
          "type" : {
            "coding" : [{
              "system" : "https://spor.ema.europa.eu/lists/220000000000",
              "code" : "220000000005",
              "display" : "Pharmaceutical dose form part"
            }]
          }
        }],
        "usage" : [{
          "country" : {
            "coding" : [{
              "system" : "urn:iso:std:iso:3166",
              "code" : "ES",
              "display" : "Spain"
            }]
          },
          "jurisdiction" : {
            "coding" : [{
              "system" : "urn:iso:std:iso:3166",
              "code" : "ES",
              "display" : "Spain"
            }]
          },
          "language" : {
            "coding" : [{
              "system" : "urn:ietf:bcp:47",
              "code" : "en",
              "display" : "English"
            }]
          }
        }]
      }]
    }
  },
  {
    "fullUrl" : "http://hl7.eu/fhir/ig/gravitate-health/ManufacturedItemDefinition/mid-04c9bd6fb89d38b2d83eced2460c4dc1",
    "resource" : {
      "resourceType" : "ManufacturedItemDefinition",
      "id" : "mid-04c9bd6fb89d38b2d83eced2460c4dc1",
      "meta" : {
        "profile" : ["http://hl7.org/fhir/uv/emedicinal-product-info/StructureDefinition/ManufacturedItemDefinition-uv-epi"]
      },
      "text" : {
        "status" : "generated",
        "div" : "<div xmlns=\"http://www.w3.org/1999/xhtml\"><p><b>Generated Narrative: ManufacturedItemDefinition</b><a name=\"mid-04c9bd6fb89d38b2d83eced2460c4dc1\"> </a></p><div style=\"display: inline-block; background-color: #d9e0e7; padding: 6px; margin: 4px; border: 1px solid #8da1b4; border-radius: 5px; line-height: 60%\"><p style=\"margin-bottom: 0px\">Resource ManufacturedItemDefinition &quot;mid-04c9bd6fb89d38b2d83eced2460c4dc1&quot; </p><p style=\"margin-bottom: 0px\">Profile: <a href=\"https://build.fhir.org/ig/HL7/emedicinal-product-info//StructureDefinition-ManufacturedItemDefinition-uv-epi.html\">ManufacturedItemDefinition (ePI)</a></p></div><p><b>identifier</b>: id:\u00a0EU/1/18/1326/001\u00a0(use:\u00a0OFFICIAL)</p><p><b>status</b>: active</p><p><b>manufacturedDoseForm</b>: suspension for injection in pre-filled syringe <span style=\"background: LightGoldenRodYellow; margin: 4px; border: 1px solid khaki\"> (#100000074063)</span></p><p><b>unitOfPresentation</b>: Syringe <span style=\"background: LightGoldenRodYellow; margin: 4px; border: 1px solid khaki\"> (rmswi#200000002150)</span></p></div>"
      },
      "identifier" : [{
        "use" : "official",
        "system" : "https://spor.ema.europa.eu/pmswi",
        "value" : "EU/1/18/1326/001"
      }],
      "status" : "active",
      "manufacturedDoseForm" : {
        "coding" : [{
          "system" : "https://spor.ema.europa.eu/rmswi/",
          "code" : "100000074063",
          "display" : "suspension for injection in pre-filled syringe"
        }]
      },
      "unitOfPresentation" : {
        "coding" : [{
          "system" : "https://spor.ema.europa.eu/rmswi",
          "code" : "200000002150",
          "display" : "Syringe"
        }]
      }
    }
  }]
}