<?xml version="1.0" encoding="UTF-8"?>

<Bundle xmlns="http://hl7.org/fhir">
  <id value="bundlepackageleaflet-379d610f9c96d541562699215b0864127"/>
  <meta>
    <profile value="http://hl7.org/fhir/uv/emedicinal-product-info/StructureDefinition/Bundle-uv-epi"/>
  </meta>
  <language value="ar"/>
  <identifier>
    <system value="https://www.jfda.jo"/>
    <value value="placeholder"/>
  </identifier>
  <type value="document"/>
  <timestamp value="2023-06-20T13:28:17Z"/>
  <entry>
    <fullUrl value="http://hl7.eu/fhir/ig/gravitate-health/Composition/compositionzi1946d2b12fecbbb0310cd8c196c98a59"/>
    <resource>
      <Composition>
        <id value="compositionzi1946d2b12fecbbb0310cd8c196c98a59"/>
        <meta>
          <profile value="http://hl7.org/fhir/uv/emedicinal-product-info/StructureDefinition/Composition-uv-epi"/>
        </meta>
        <language value="ar"/>
        <text>
          <status value="generated"/><div xmlns="http://www.w3.org/1999/xhtml" xml:lang="ar" lang="ar"><p><b>Generated Narrative: Composition</b><a name="compositionzi1946d2b12fecbbb0310cd8c196c98a59"> </a></p><div style="display: inline-block; background-color: #d9e0e7; padding: 6px; margin: 4px; border: 1px solid #8da1b4; border-radius: 5px; line-height: 60%"><p style="margin-bottom: 0px">Resource Composition &quot;compositionzi1946d2b12fecbbb0310cd8c196c98a59&quot;  (Language &quot;ar&quot;) </p><p style="margin-bottom: 0px">Profile: <a href="https://build.fhir.org/ig/HL7/emedicinal-product-info//StructureDefinition-Composition-uv-epi.html">Composition (ePI)</a></p></div><p><b>identifier</b>: id: placeholder</p><p><b>status</b>: final</p><p><b>type</b>: Package Leaflet <span style="background: LightGoldenRodYellow; margin: 4px; border: 1px solid khaki"> (#100000155538)</span></p><p><b>date</b>: 2023-06-20 13:28:17+0000</p><p><b>author</b>: <a href="#Organization_org-1135a7374c78f1d40f41885344f06a5a">See above (Organization/org-1135a7374c78f1d40f41885344f06a5a)</a></p><p><b>title</b>: TEST PURPOSES ONLY - كبسولات زيثروماكس® 250 مجم </p><h3>Attesters</h3><table class="grid"><tr><td style="display: none">-</td><td><b>Mode</b></td><td><b>Time</b></td></tr><tr><td style="display: none">*</td><td>Official <span style="background: LightGoldenRodYellow; margin: 4px; border: 1px solid khaki"> (<a href="http://hl7.org/fhir/R5/codesystem-composition-attestation-mode.html">Composition Attestation Mode</a>#official)</span></td><td>2023-06-20 13:28:17+0000</td></tr></table></div>
        </text>
        <identifier>
          <system value="https://www.jfda.jo"/>
          <value value="placeholder"/>
        </identifier>
        <status value="final"/>
        <type>
          <coding>
            <system value="https://www.jfda.jo/"/>
            <code value="100000155538"/>
          </coding>
          <text value="Package Leaflet"/>
        </type>
        <subject>
          <reference value="MedicinalProductDefinition/zi6fb1761a0a38bea0a9b49f146371c68b"/>
        </subject>
        <date value="2023-06-20T13:28:17Z"/>
        <author>
          <reference value="Organization/org-1135a7374c78f1d40f41885344f06a5a"/>
        </author>
        <title value="TEST PURPOSES ONLY - كبسولات زيثروماكس® 250 مجم "/>
        <attester>
          <mode>
            <coding>
              <system value="http://hl7.org/fhir/composition-attestation-mode"/>
              <code value="official"/>
            </coding>
          </mode>
          <time value="2023-06-20T13:28:17Z"/>
        </attester>
        <section>
          <title value=" النشرة الداخلية: معلومات للمريض"/>
          <code>
            <coding>
              <system value="https://www.jfda.jo/"/>
              <code value="100000155538"/>
            </coding>
            <text value="B. PACKAGE LEAFLET"/>
          </code>
          <text>
            <status value="additional"/><div xmlns="http://www.w3.org/1999/xhtml"><p>زيثروماكس®</p><p>زيثروماكس 250 مجم كبسولات صلبة</p><p>أزيثرومايسين</p><p>السوق المرجعية: المملكة المتحدة</p><p>النشرة الداخلية</p></div>
          </text>
          <section>
            <title value="النشرة الداخلية: معلومات للمريض"/>
            <code>
              <coding>
                <system value="https://www.jfda.jo/"/>
                <code value="100000155538"/>
              </coding>
              <text value="Package leaflet: Information for the patient"/>
            </code>
            <text>
              <status value="additional"/><div xmlns="http://www.w3.org/1999/xhtml"><p>كبسولات زيثروماكس® 250 مجم</p><p>أزيثرومايسين</p><p>اقرأ هذه النشرة بالكامل بعناية قبل البدء في تناول هذا الدواء لأنها تحتوي على معلومات مهمة لك.</p><ul><li>احتفظ بهذه النشرة. فقد تحتاج إلى قراءتها مرة أخرى.</li><li>إذا كانت لديك أي أسئلة أخرى، فاسأل طبيبك أو الصيدلي.</li><li>لقد وُصف هذا الدواء لك أنت فقط. فلا تعطه للآخرين. فقد يسبب لهم ضررًا، حتى إذا كانت علامات مرضهم مطابقة لعلامات مرضك.</li><li>إذا أصبت بأي آثار جانبية، فتحدث إلى طبيبك أو الصيدلي بشأنها. يتضمن هذا أي آثار جانبية محتملة غير مدرجة في هذه النشرة. انظر القسم 4.</li></ul><p>(صورة للعبوة)</p></div>
            </text>
          </section>
          <section>
            <title value="محتويات هذه النشرة"/>
            <code>
              <coding>
                <system value="https://www.jfda.jo/"/>
                <code value="100000155538"/>
              </coding>
              <text value="What is in this leaflet"/>
            </code>
            <text>
              <status value="additional"/><div xmlns="http://www.w3.org/1999/xhtml"><ol><li>ما هو زيثروماكس وفيم يستخدم</li><li>ما تحتاج إلى معرفته قبل تناول زيثروماكس</li><li>كيفية تناول زيثروماكس</li><li>الآثار الجانبية المحتملة</li><li>كيفية تخزين زيثروماكس</li><li>محتويات العبوة ومعلومات أخرى</li></ol></div>
            </text>
          </section>
          <section>
            <title value="1. ما هو زيثروماكس وفيم يستخدم"/>
            <code>
              <coding>
                <system value="https://www.jfda.jo/"/>
                <code value="100000155538"/>
              </coding>
              <text value="1. What x is and what it is used for"/>
            </code>
            <text>
              <status value="additional"/><div xmlns="http://www.w3.org/1999/xhtml"><p>محتويات هذه النشرة</p><ol><li>ما هو زيثروماكس وفيم يستخدم</li><li>ما تحتاج إلى معرفته قبل تناول زيثروماكس</li><li>كيفية تناول زيثروماكس</li><li>الآثار الجانبية المحتملة</li><li>كيفية تخزين زيثروماكس</li><li>محتويات العبوة ومعلومات أخرى</li></ol></div>
            </text>
          </section>
          <section>
            <title value="2. ما تحتاج إلى معرفته قبل تناول زيثروماكس"/>
            <code>
              <coding>
                <system value="https://www.jfda.jo/"/>
                <code value="100000155538"/>
              </coding>
              <text value="2. What you need to know before you take x"/>
            </code>
            <text>
              <status value="additional"/><div xmlns="http://www.w3.org/1999/xhtml"><p>لا تتناول زيثروماكس:</p><ul><li>إذا كنت مصابًا بالحساسية تجاه أزيثرومايسين أو أي مضاد حيوي ماكروليدي آخر مثل إريثرومايسين أو كلاريثرومايسين أو تجاه أي من مكونات هذا الدواء (مدرجة في القسم 6). تفاعل الحساسية قد يؤدي إلى الإصابة بطفح جلدي أو أزيز.</li></ul><p>تحذيرات واحتياطات</p><p>تحدث إلى طبيبك أو الصيدلي قبل تناول زيثروماكس إذا كنت تعاني أو قد عانيت من أي من الحالات التالية:</p><ul><li>مشكلات في الكلى</li><li>أو حالات قلبية</li><li>أو مشكلات في الكبد: قد يحتاج طبيبك إلى مراقبة وظائف كبدك أو إيقاف العلاج</li><li>أو الوهن العضلي الوبيل (حالة تتسبب في إصابة عضلات معينة بالضعف)</li><li>أو إذا كنت تتناول أي من مشتقات الإرجوت مثل إرجوتامين (يُستخدم لعلاج الصداع النصفي) لأن هذه الأدوية ينبغي ألا يتم تناولها بالتزامن مع زيثروماكس.</li></ul><p>أخبر طبيبك على الفور إذا كنت تشعر بقوة نبضات قلبك في صدرك أو إذا كنت تشعر بأن نبضات القلب غير طبيعية أو إذا أصبت بدوار أو إغماء أو عانيت من أي ضعف عضلي عند تناول زيثروماكس.</p><p>إذا أصبت بالإسهال أو بليونة البراز أثناء العلاج أو بعده، فأخبر طبيبك فورًا. لا تتناول أي دواء لعلاج الإسهال الذي تعاني منه دون مراجعة طبيبك أولًا. إذا استمر الإسهال، يُرجى إبلاغ طبيبك بذلك.</p><p>الأدوية الأخرى وزيثروماكس</p><p>أخبر طبيبك أو الصيدلي إذا كنت تتلقى أو تلقيت مؤخرًا أو قد تتلقى أي أدوية أخرى.</p><p>بشكل خاص، قد يتفاعل زيثروماكس مع الأدوية المدرجة أدناه:</p><ul><li>إرجوت أو إرجوتامين – انظر قسم "تحذيرات واحتياطات"</li><li>وارفارين أو أي دواء مشابه لمنع الإصابة بجلطات الدم</li><li>سيكلوسبورين (يُستخدم لكبت النظام المناعي لمنع رفض عضو أو نخاع عظم مزروع وعلاج هذه الحالة)</li><li>مضادات الحموضة (تُستخدم لعلاج عسر الهضم)</li><li>ديجوكسين (يُستخدم لعلاج فشل القلب)</li><li>كولشيسين (يُستخدم لعلاج النقرس وحمى البحر المتوسط العائلية)</li><li>تيرفينادين (لعلاج حمى القش أو حساسية الجلد)</li></ul><p>زيثروماكس مع الطعام والشراب</p><p>ينبغي أن تتناول زيثروماكس إما قبل الوجبة بساعة واحدة أو بعد تناولها بساعتين.</p><p>الحمل والرضاعة الطبيعية والخصوبة</p><p>إذا كنتِ حاملًا أو ترضعين رضاعة طبيعية، أو تعتقدين أنكِ ربما تكونين حاملًا أو تخططين للحمل، فاستشيري طبيبكِ أو الصيدلي قبل تناول هذا الدواء.</p><p>القيادة واستخدام الآلات</p><p>لا يُتوقع أن يؤثر زيثروماكس على قدرتك على القيادة أو استخدام الآلات.</p><p>تحتوي كبسولات زيثروماكس على اللاكتوز، نوع من أنواع السكر. إذا أخبرك طبيبك بأنك لا تستطيع تحمل بعض أنواع السكريات، فاتصل بطبيبك قبل تناول هذا الدواء.</p><p>تحتوي كبسولات زيثروماكس على ثاني أكسيد الكبريت، الذي قد يسبب في حالات نادرة الإصابة بتفاعلات حساسية شديدة (فرط الحساسية) وأزيز (التشنج القصبي).</p><p>معلومات حول محتوى الصوديوم</p><p>يحتوي زيثروماكس على أقل من 1 مليمول من الصوديوم (23 ملجم) لكل كبسولة، أي أنه في الأساس "خالٍ من الصوديوم".</p></div>
            </text>
          </section>
          <section>
            <title value="3. كيفية تناول زيثروماكس"/>
            <code>
              <coding>
                <system value="https://www.jfda.jo/"/>
                <code value="100000155538"/>
              </coding>
              <text value="3. How to take x"/>
            </code>
            <text>
              <status value="additional"/><div xmlns="http://www.w3.org/1999/xhtml"><p>احرص دومًا على تناول هذا الدواء بالضبط كما أخبرك طبيبك. راجع طبيبك أو الصيدلي إذا لم تكن متأكدًا مما ينبغي عليك فعله. ينبغي بلع الكبسولات كاملةً.</p><p>الجرعة الموصى بها في البالغين والأطفال الذين يزيد وزنهم عن 7 ستون (45 كجم) هي 500 مجم (كبسولتان) يؤخذان معًا، مرة واحدة في اليوم لمدة 3 أيام. بالنسبة لبعض الأمراض مثل المتدثرة، تكون الجرعة الموصى بها هي جرام واحد (4 كبسولات) يتم تناولها جميعًا في يوم واحد فقط. وبالنسبة للسيلان، تكون الجرعة الموصى بها هي جرام واحد أو جرامان من أزيثرومايسين بالتزامن مع 250 مجم أو 500 مجم من سيفترياكسون.</p><p></p><p>ينبغي للأطفال الذين يقل وزنهم عن 45 كجم عدم تناول كبسولات زيثروماكس.</p><p>ينبغي أن تخبر طبيبك إذا كنت تعاني من مشكلات في الكبد أو الكلى لأنه قد يحتاج إلى تعديل الجرعة العادية.</p><p>في بعض الأحيان، يصف الأطباء جرعات مختلفة عن الجرعات الموصى بها. سيخبرك الملصق الموجود على العبوة بالجرعة التي ينبغي أن تتناولها. إذا كنت لا تزال غير متأكد، فاسأل طبيبك أو الصيدلي.</p><p>قم دائمًا باستكمال دورة العلاج حتى إذا شعرت بتحسن. إذا تفاقمت العدوى التي تعاني منها أو إذا لم تبدأ في الشعور بتحسن في غضون أيام قليلة أو إذا أصبت بعدوى جديدة، فقم بزيارة طبيبك مجددًا.</p><p>في حالة تناولك جرعة من زيثروماكس أكبر مما ينبغي</p><p>إذا تناولت كمية أكبر من اللازم من زيثروماكس، فقد تشعر بتوعك. أخبر طبيبك أو تواصل على الفور مع قسم الإصابات بأقرب مستشفى منك.</p><p>إذا نسيت تناول زيثروماكس</p><p>إذا نسيت أن تتناول زيثروماكس، فتناوله في أٌقرب وقت ممكن. وتناول جرعتك التالية في وقتها الصحيح. لا تتناول جرعة مضاعفة لتعويض جرعة منسية.</p><p>إذا أوقفت تناول زيثروماكس</p><p>إذا أوقفت تناول زيثروماكس في وقت مبكر جدًا، فقد تصيبك العدوى مجددًا. تناول الكبسولات طوال فترة العلاج بالكامل، حتى عندما تبدأ في الشعور بتحسن.</p><p>إذا كان لديك المزيد من الأسئلة حول استخدام هذا الدواء، فاسأل طبيبك أو الصيدلي.</p></div>
            </text>
          </section>
          <section>
            <title value="4. الآثار الجانبية المحتملة"/>
            <code>
              <coding>
                <system value="https://www.jfda.jo/"/>
                <code value="100000155538"/>
              </coding>
              <text value="4. Possible side effects"/>
            </code>
            <text>
              <status value="additional"/><div xmlns="http://www.w3.org/1999/xhtml"><p>كما هو الحال مع جميع الأدوية، يمكن أن يسبب هذا الدواء آثارًا جانبية، إلا أنها لا تصيب الجميع.</p><p>أخبر طبيبك على الفور إذا أصبت بأي من الأعراض التالية بعد تناول هذا الدواء لأن الأعراض قد تكون شديدة.</p><ul><li>أزيز مفاجئ، صعوبة في التنفس، تورم الجفون أو الوجه أو الشفتين، أو الطفح الجلدي، أو الحكة (خاصة التي تصيب الجسم بأكمله)</li><li>الإسهال الشديد أو المطول، الذي قد يحتوي على دم أو مخاط، أثناء العلاج بزيثروماكس أو بعده لأن هذا قد يكون علامة على الإصابة بالتهاب خطير في الأمعاء</li><li>الطفح الجلد الشديد الذي يتسبب في الاحمرار والتقشر</li><li>سرعة نبضات القلب أو عدم انتظامها</li><li>ضغط الدم المنخفض</li><li>تفاعلات جلدية خطيرة:</li></ul><ul><li>- تبثر الجلد والفم والعينين والأعضاء التناسلية (متلازمة ستيفنز-جونسون (SJS)(</li><li>- تبثر الجلد، التفاعلات الجلدية الشديدة (تقشر الأنسجة المتموتة البشروية التسممي ( ((TEN</li><li>- الطفح الجلدي المصحوب بأعراض أخرى مثل الحمى، وتورم الغدد، وزيادة في اليوزينيات (نوع من أنواع خلايا الدم البيضاء). طفح جلدي يظهر في صورة بثور صغيرة حمراء مثيرة للحكة (تفاعل العقار المصحوب بكثرة اليوزينيات وأعراض جهازية (DRESS))</li><li>- طفح جلدي يتسم بظهور سريع لمناطق من الجلد الأحمر فوقه حبوب صغيرة (بثور صغيرة ممتلئة بسائل أبيض/أصفر) (البثار الطفحي المعمم الحاد (AGEP)).</li></ul><p>توقف عن تناول أزيثرومايسين إذا أصبت بأعراض الجلد هذه وتواصل مع طبيبك أو اطلب الرعاية الطبية على الفور.</p><p>مدرج أدناه أكثر الآثار الجانبية شيوعًا التي تحدث عند تناول زيثروماكس. قد تزول هذه الآثار أثناء العلاج مع تكيف جسمك مع الدواء. أخبر طبيبك إذا استمر أحد هذه الآثار الجانبية في إزعاجك.</p><p>شائعة جدًا: قد تصيب أكثر من شخص واحد من بين كل 10 أشخاص</p><ul><li>تقلصات المعدة، الشعور بالغثيان، الإسهال، الغازات</li></ul><p>شائعة: قد تصيب ما يصل إلى شخص واحد من بين كل 10 أشخاص</p><ul><li>الدوار، الصداع</li><li>الخدر أو الشكشكة والوخز</li><li>الشعور بالمرض، عسر الهضم</li><li>فقدان الشهية، اضطراب التذوق</li><li>اضطرابات بصرية، الصمم</li><li>الطفح الجلدي و/أو الحكة</li><li>ألم المفاصل</li><li>أعداد منخفضة من الليمفاويات (نوع من أنواع خلايا الدم البيضاء)، عدد أعلى من اليوزينيات (نوع من أنواع خلايا الدم البيضاء)</li><li>انخفاض بيكربونات الدم</li><li>التعب أو الضعف</li></ul><p>غير شائعة: قد تصيب ما يصل إلى شخص واحد من بين كل 100 شخص</p><ul><li>حالات عدوى فطرية في الفم والمهبل (قلاع)</li><li>أعداد منخفضة من الكريات البيضاء (نوع من أنواع خلايا الدم البيضاء)، عدد منخفض من العدلات (نوع من أنواع خلايا الدم البيضاء)</li><li>تفاعلات حساسية ذات درجات شدة مختلفة</li><li>زيادة حساسية الجلد لضوء الشمس بشكل يزيد عن الطبيعي</li><li>الشعور بالتوتر</li><li>ضعف حاسة اللمس أو القدرة على الإحساس (نقص الحس)</li><li>النعاس أو عدم النوم (الأرق)</li><li>انخفاض القدرة على السمع أو وجود طنين في الأذنين</li><li>خفقان القلب، ألم الصدر</li><li>الإمساك، ألم المعدة المرتبط بالإسهال والحمى</li><li>التهاب الكبد (الالتهاب الكبدي)، تغيرات في إنزيمات الكبد</li><li>فقدان عام للقوة</li><li>تورم</li><li>انزعاج عام</li><li>قيم الاختبارات المعملية غير الطبيعية (مثل فحوصات الدم أو الكبد)</li></ul><p>نادرة: قد تصيب ما يصل إلى شخص واحد من بين كل 1000 شخص</p><ul><li>التهيج</li><li>الدوار</li><li>تغيرات في وظائف الكبد</li></ul><p>غير معروف: لا يمكن تقدير معدل التكرار من البيانات المتاحة</p><ul><li>نوبات أو إغماء</li><li>العدائية أو القلق</li><li>الشعور بفرط النشاط</li><li>ضعف موضعي في العضلات</li><li>فقدان حاسة الشم أو حدوث تغير فيها، فقدان حاسة التذوق</li><li>تغير لون اللسان</li><li>التهاب البنكرياس</li><li>التهاب الكلى أو الفشل الكلوي</li><li>اصفرار الجلد أو العينين (اليرقان) أو فشل الكبد (في حالات نادرة يكون مهددًا للحياة)</li><li>تكدم أو نزيف مطول بعد إصابة</li><li>مخطط رسم القلب (ECG) غير الطبيعي</li><li>انخفاض في أعداد خلايا الدم الحمراء مما قد يؤدي إلى شحوب الجلد وإلى الإصابة بالضعف أو انقطاع النفس</li></ul><p>الإبلاغ عن الآثار الجانبية</p><p>إذا أصبت بأي آثار جانبية، فتحدث إلى طبيبك أو الصيدلي بشأنها. يتضمن هذا أي آثار جانبية محتملة غير مدرجة في هذه النشرة. يمكنك أيضًا الإبلاغ عن الآثار الجانبية مباشرة</p><p>بالإبلاغ عن الآثار الجانبية، يمكنك المساعدة في توفير المزيد من المعلومات حول سلامة هذا الدواء.</p></div>
            </text>
          </section>
          <section>
            <title value="5. كيفية تخزين زيثروماكس"/>
            <code>
              <coding>
                <system value="https://www.jfda.jo/"/>
                <code value="100000155538"/>
              </coding>
              <text value="5. How to store x"/>
            </code>
            <text>
              <status value="additional"/><div xmlns="http://www.w3.org/1999/xhtml"><p>احتفظ بالدواء بعيدًا عن مرأى ومتناول الأطفال.</p><p>قم بتخزينه في درجة حرارة أقل من 30 درجة مئوية.</p><p>لا تستخدم زيثروماكس بعد تاريخ انتهاء الصلاحية المُدون على العبوة الكرتونية وشرائط البليستر بعد الرمز "EXP". يشير تاريخ انتهاء الصلاحية إلى آخر يوم من الشهر المذكور.</p><p>لا تتخلص من أي أدوية عبر مياه الصرف أو في المخلفات المنزلية. اسأل الصيدلي الذي تتعامل معه عن كيفية التخلص من الأدوية التي لم تعد تستخدمها. ستساعد هذه الإجراءات في حماية البيئة.</p></div>
            </text>
          </section>
          <section>
            <title value="6. محتويات العبوة ومعلومات أخرى"/>
            <code>
              <coding>
                <system value="https://www.jfda.jo/"/>
                <code value="100000155538"/>
              </coding>
              <text value="6. Contents of the pack and other information"/>
            </code>
            <text>
              <status value="additional"/><div xmlns="http://www.w3.org/1999/xhtml"><p>مكونات زيثروماكس</p><p>المادة الفعالة هي أزيثرومايسين (250 مجم).</p><p>المكونات الأخرى هي لاكتوز لا مائي (انظر القسم 2، "تحتوي كبسولات زيثروماكس على اللاكتوز")، وستيارات المغنيسيوم، ونشا الذرة الصفراء، وسلفات لوريل الصوديوم، وجيلاتين، وأكسيد الحديد (أسود) E172، وصمغ اللك، وبروبيلين جليكول، وثاني أكسيد الكبريت (انظر القسم 2 "تحتوي كبسولات زيثروماكس على ثاني أكسيد الكبريت")، وثاني أكسيد التيتانيوم.</p><p>شكل زيثروماكس ومحتويات العبوة</p><p>كبسولات زيثروماكس هي كبسولات جيلاتينية صلبة بيضاء اللون عليها علامة "Pfizer" و"ZTM 250". وتأتي في شرائط بليستر تحتوي على 4 أو 6.</p><p>قد لا يتم طرح جميع أحجام العبوات في الأسواق.</p><p>مالك تصريح التسويق</p><p>شركة فايزر ذات المسؤولية المحدودة، طريق رامسجيت، ساندوتش، كينت، CT13 9NJ، المملكة المتحدة.</p><p>التصنيع والتعبئة والتوزيع</p><p>شركة هاوبت فارما لاتينا ذات المسؤولية المحدودة، سترادا ستاتال 156، كم 47,600؛ بورجو سان ميشيل، 04100 لاتينا، إيطاليا</p><p>تمت آخر مراجعة لهذه النشرة في: نوفمبر/تشرين الثاني 2020</p><p>إن هذا دواء</p><ul><li>- الدواء مستحضر يؤثر على صحتك واستهلاكه خلافًا للتعليمات يعرضك للخطر.</li><li>- اتبع بدقة وصفة الطبيب وطريقة الاستخدام وتعليمات الصيدلي الذي قام بصرف الدواء.</li><li>- الطبيب والصيدلي خبيران في الأدوية ومنافعها والمخاطر المترتبة على تناولها.</li><li>- لا تقطع مدة العلاج المحددة لك من تلقاء نفسك.</li><li>- لا تكرر صرف نفس الدواء بدون استشارة طبيبك.</li></ul><p>تُحفظ جميع الأدوية بعيدًا عن متناول ومرأى الأطفال</p><p>مجلس وزراء الصحة العرب</p><p>اتحاد الصيادلة العرب</p></div>
            </text>
          </section>
        </section>
      </Composition>
    </resource>
  </entry>
  <entry>
    <fullUrl value="http://hl7.eu/fhir/ig/gravitate-health/Organization/org-1135a7374c78f1d40f41885344f06a5a"/>
    <resource>
      <Organization>
        <id value="org-1135a7374c78f1d40f41885344f06a5a"/>
        <meta>
          <profile value="http://hl7.org/fhir/uv/emedicinal-product-info/StructureDefinition/Organization-uv-epi"/>
        </meta>
        <text>
          <status value="generated"/><div xmlns="http://www.w3.org/1999/xhtml"><p><b>Generated Narrative: Organization</b><a name="org-1135a7374c78f1d40f41885344f06a5a"> </a></p><div style="display: inline-block; background-color: #d9e0e7; padding: 6px; margin: 4px; border: 1px solid #8da1b4; border-radius: 5px; line-height: 60%"><p style="margin-bottom: 0px">Resource Organization &quot;org-1135a7374c78f1d40f41885344f06a5a&quot; </p><p style="margin-bottom: 0px">Profile: <a href="https://build.fhir.org/ig/HL7/emedicinal-product-info//StructureDefinition-Organization-uv-epi.html">Organization (ePI)</a></p></div><p><b>identifier</b>: id: ORG-100008368 (use: OFFICIAL)</p><p><b>active</b>: true</p><p><b>type</b>: Marketing authorisation holder <span style="background: LightGoldenRodYellow; margin: 4px; border: 1px solid khaki"> (rmswi#220000000034)</span></p><p><b>name</b>: Pfizer Limited</p><h3>Contacts</h3><table class="grid"><tr><td style="display: none">-</td><td><b>Address</b></td></tr><tr><td style="display: none">*</td><td>Ramsgate Road, Sandwich, Kent, CT13 9NJ, United Kingdom(WORK)</td></tr></table></div>
        </text>
        <identifier>
          <use value="official"/>
          <system value="https://spor.ema.europa.eu/omswi"/>
          <value value="ORG-100008368"/>
        </identifier>
        <active value="true"/>
        <type>
          <coding>
            <system value="https://spor.ema.europa.eu/rmswi"/>
            <code value="220000000034"/>
            <display value="Marketing authorisation holder"/>
          </coding>
          <text value="Marketing authorisation holder"/>
        </type>
        <name value="Pfizer Limited"/>
        <contact>
          <address>
            <use value="work"/>
            <type value="physical"/>
            <text value="Ramsgate Road, Sandwich, Kent, CT13 9NJ, United Kingdom"/>
            <line value="Ramsgate Road, Sandwich, Kent, CT13 9NJ"/>
            <city value="Sandwich, Kent"/>
            <country value="UK"/>
          </address>
        </contact>
      </Organization>
    </resource>
  </entry>
  <entry>
    <fullUrl value="http://hl7.eu/fhir/ig/gravitate-health/MedicinalProductDefinition/zi6fb1761a0a38bea0a9b49f146371c68b"/>
    <resource>
      <MedicinalProductDefinition>
        <id value="zi6fb1761a0a38bea0a9b49f146371c68b"/>
        <meta>
          <profile value="http://hl7.org/fhir/uv/emedicinal-product-info/StructureDefinition/MedicinalProductDefinition-uv-epi"/>
        </meta>
        <text>
          <status value="generated"/><div xmlns="http://www.w3.org/1999/xhtml"><p><b>Generated Narrative: MedicinalProductDefinition</b><a name="zi6fb1761a0a38bea0a9b49f146371c68b"> </a></p><div style="display: inline-block; background-color: #d9e0e7; padding: 6px; margin: 4px; border: 1px solid #8da1b4; border-radius: 5px; line-height: 60%"><p style="margin-bottom: 0px">Resource MedicinalProductDefinition &quot;zi6fb1761a0a38bea0a9b49f146371c68b&quot; </p><p style="margin-bottom: 0px">Profile: <a href="https://build.fhir.org/ig/HL7/emedicinal-product-info//StructureDefinition-MedicinalProductDefinition-uv-epi.html">MedicinalProductDefinition (ePI)</a></p></div><p><b>identifier</b>: id: placeholder</p><p><b>type</b>: Medicinal Product <span style="background: LightGoldenRodYellow; margin: 4px; border: 1px solid khaki"> (<a href="http://hl7.org/fhir/R5/codesystem-medicinal-product-type.html">Medicinal Product Type</a>#MedicinalProduct)</span></p><p><b>domain</b>: Human use <span style="background: LightGoldenRodYellow; margin: 4px; border: 1px solid khaki"> (<a href="http://hl7.org/fhir/R5/codesystem-medicinal-product-domain.html">Medicinal Product Domain</a>#Human)</span></p><p><b>status</b>: active <span style="background: LightGoldenRodYellow; margin: 4px; border: 1px solid khaki"> (<a href="http://hl7.org/fhir/R5/codesystem-publication-status.html">PublicationStatus</a>#active)</span></p><p><b>legalStatusOfSupply</b>: Medicinal product subject to medical prescription <span style="background: LightGoldenRodYellow; margin: 4px; border: 1px solid khaki"> (rmswi#100000072084)</span></p><blockquote><p><b>name</b></p><p><b>productName</b>: zithromax (azithromycin) 250 mg capsules</p><p><b>type</b>: Full name <span style="background: LightGoldenRodYellow; margin: 4px; border: 1px solid khaki"> (220000000000#220000000001)</span></p><blockquote><p><b>part</b></p><p><b>part</b>: zithromax</p><p><b>type</b>: Invented name part <span style="background: LightGoldenRodYellow; margin: 4px; border: 1px solid khaki"> (220000000000#220000000002)</span></p></blockquote><blockquote><p><b>part</b></p><p><b>part</b>: azithromycin</p><p><b>type</b>: Scientific name part <span style="background: LightGoldenRodYellow; margin: 4px; border: 1px solid khaki"> (220000000000#220000000003)</span></p></blockquote><blockquote><p><b>part</b></p><p><b>part</b>: 250 mg</p><p><b>type</b>: Strength part <span style="background: LightGoldenRodYellow; margin: 4px; border: 1px solid khaki"> (220000000000#220000000004)</span></p></blockquote><blockquote><p><b>part</b></p><p><b>part</b>: Capsule, hard</p><p><b>type</b>: Pharmaceutical dose form part <span style="background: LightGoldenRodYellow; margin: 4px; border: 1px solid khaki"> (220000000000#220000000005)</span></p></blockquote><h3>Usages</h3><table class="grid"><tr><td style="display: none">-</td><td><b>Country</b></td><td><b>Jurisdiction</b></td><td><b>Language</b></td></tr><tr><td style="display: none">*</td><td>Jordan <span style="background: LightGoldenRodYellow; margin: 4px; border: 1px solid khaki"> (<a href="http://terminology.hl7.org/5.3.0/CodeSystem-ISO3166Part1.html">ISO 3166-1 Codes for the representation of names of countries and their subdivisions — Part 1: Country code</a>#JO)</span></td><td>Jordan <span style="background: LightGoldenRodYellow; margin: 4px; border: 1px solid khaki"> (<a href="http://terminology.hl7.org/5.3.0/CodeSystem-ISO3166Part1.html">ISO 3166-1 Codes for the representation of names of countries and their subdivisions — Part 1: Country code</a>#JO)</span></td><td>English <span style="background: LightGoldenRodYellow; margin: 4px; border: 1px solid khaki"> (<a href="http://terminology.hl7.org/5.3.0/CodeSystem-v3-ietf3066.html">Tags for the Identification of Languages</a>#en)</span></td></tr></table></blockquote></div>
        </text>
        <identifier>
          <system value="https://jfda.jo"/>
          <value value="placeholder"/>
        </identifier>
        <type>
          <coding>
            <system value="http://hl7.org/fhir/medicinal-product-type"/>
            <code value="MedicinalProduct"/>
            <display value="Medicinal Product"/>
          </coding>
        </type>
        <domain>
          <coding>
            <system value="http://hl7.org/fhir/medicinal-product-domain"/>
            <code value="Human"/>
            <display value="Human use"/>
          </coding>
        </domain>
        <status>
          <coding>
            <system value="http://hl7.org/fhir/publication-status"/>
            <code value="active"/>
            <display value="active"/>
          </coding>
        </status>
        <legalStatusOfSupply>
          <coding>
            <system value="https://spor.ema.europa.eu/rmswi"/>
            <code value="100000072084"/>
            <display value="Medicinal product subject to medical prescription"/>
          </coding>
        </legalStatusOfSupply>
        <name>
          <productName value="zithromax (azithromycin) 250 mg capsules"/>
          <type>
            <coding>
              <system value="https://spor.ema.europa.eu/lists/220000000000"/>
              <code value="220000000001"/>
            </coding>
            <text value="Full name"/>
          </type>
          <part>
            <part value="zithromax"/>
            <type>
              <coding>
                <system value="https://spor.ema.europa.eu/lists/220000000000"/>
                <code value="220000000002"/>
              </coding>
              <text value="Invented name part"/>
            </type>
          </part>
          <part>
            <part value="azithromycin"/>
            <type>
              <coding>
                <system value="https://spor.ema.europa.eu/lists/220000000000"/>
                <code value="220000000003"/>
              </coding>
              <text value="Scientific name part"/>
            </type>
          </part>
          <part>
            <part value="250 mg"/>
            <type>
              <coding>
                <system value="https://spor.ema.europa.eu/lists/220000000000"/>
                <code value="220000000004"/>
              </coding>
              <text value="Strength part"/>
            </type>
          </part>
          <part>
            <part value="Capsule, hard"/>
            <type>
              <coding>
                <system value="https://spor.ema.europa.eu/lists/220000000000"/>
                <code value="220000000005"/>
              </coding>
              <text value="Pharmaceutical dose form part"/>
            </type>
          </part>
          <usage>
            <country>
              <coding>
                <system value="urn:iso:std:iso:3166"/>
                <code value="JO"/>
                <display value="Jordan"/>
              </coding>
            </country>
            <jurisdiction>
              <coding>
                <system value="urn:iso:std:iso:3166"/>
                <code value="JO"/>
                <display value="Jordan"/>
              </coding>
            </jurisdiction>
            <language>
              <coding>
                <system value="urn:ietf:bcp:47"/>
                <code value="en"/>
                <display value="English"/>
              </coding>
            </language>
          </usage>
        </name>
      </MedicinalProductDefinition>
    </resource>
  </entry>
</Bundle>