{
  "resourceType" : "Bundle",
  "id" : "bundlepackageleaflet-talzenna1and025",
  "meta" : {
    "profile" : ["http://hl7.org/fhir/uv/emedicinal-product-info/StructureDefinition/Bundle-uv-epi"]
  },
  "language" : "en",
  "identifier" : {
    "system" : "https://www.mhra.gov.uk/",
    "value" : "talzenna"
  },
  "type" : "document",
  "timestamp" : "2022-03-04T00:00:00Z",
  "entry" : [{
    "fullUrl" : "http://hl7.eu/fhir/ig/gravitate-health/Composition/compositionuken",
    "resource" : {
      "resourceType" : "Composition",
      "id" : "compositionuken",
      "meta" : {
        "profile" : ["http://hl7.org/fhir/uv/emedicinal-product-info/StructureDefinition/Composition-uv-epi"]
      },
      "language" : "en",
      "text" : {
        "status" : "generated",
        "div" : "<div xmlns=\"http://www.w3.org/1999/xhtml\" xml:lang=\"en\" lang=\"en\"><p><b>Generated Narrative: Composition</b><a name=\"compositionuken\"> </a></p><div style=\"display: inline-block; background-color: #d9e0e7; padding: 6px; margin: 4px; border: 1px solid #8da1b4; border-radius: 5px; line-height: 60%\"><p style=\"margin-bottom: 0px\">Resource Composition &quot;compositionuken&quot;  (Language &quot;en&quot;) </p><p style=\"margin-bottom: 0px\">Profile: <a href=\"https://build.fhir.org/ig/HL7/emedicinal-product-info//StructureDefinition-Composition-uv-epi.html\">Composition (ePI)</a></p></div><p><b>identifier</b>: id:\u00a00d69fdcb-33cf-407f-8209-a6529856ab4f</p><p><b>status</b>: final</p><p><b>type</b>: Package Leaflet <span style=\"background: LightGoldenRodYellow; margin: 4px; border: 1px solid khaki\"> (#100000155538)</span></p><p><b>date</b>: 2022-03-04 00:00:00+0000</p><p><b>author</b>: <a href=\"#Organization_orgpfizerukltd\">See above (Organization/orgpfizerukltd)</a></p><p><b>title</b>: Talzenna® (talazoparib) 0.25 mg and 1mg hard capsules</p></div>"
      },
      "identifier" : [{
        "system" : "https://www.mhra.gov.uk/",
        "value" : "0d69fdcb-33cf-407f-8209-a6529856ab4f"
      }],
      "status" : "final",
      "type" : {
        "coding" : [{
          "system" : "https://www.mhra.gov.uk/",
          "code" : "100000155538"
        }],
        "text" : "Package Leaflet"
      },
      "subject" : [{
        "reference" : "MedicinalProductDefinition/mp025mg"
      }],
      "date" : "2022-03-04T00:00:00Z",
      "author" : [{
        "reference" : "Organization/orgpfizerukltd"
      }],
      "title" : "Talzenna® (talazoparib) 0.25 mg and 1mg hard capsules",
      "section" : [{
        "title" : "Package leaflet: Information for the patient",
        "code" : {
          "coding" : [{
            "system" : "https://www.mhra.gov.uk/",
            "code" : "100000155538"
          }],
          "text" : "Package leaflet: Information for the patient"
        },
        "text" : {
          "status" : "additional",
          "div" : "<div xmlns=\"http://www.w3.org/1999/xhtml\"><p style=\"text-align: center\" class=\"mg-025\"><b>Talzenna<sup>®</sup> 0.25 mg hard capsules</b></p><p style=\"text-align: center\" class=\"mg-1\"><b>Talzenna<sup>®</sup> 1 mg hard capsules</b></p><p style=\"text-align: center\">talazoparib</p><p>▼ This medicine is subject to additional monitoring. This will allow quick identification of new safety information. You can help by reporting any side effects you may get. See the end of section 4 for how to report side effects.</p><p><b>Read all of this leaflet carefully before you start taking this medicine because it contains important information for you.</b></p><ul><li>Keep this leaflet. You may need to read it again.</li><li>If you have any further questions, ask your doctor, pharmacist or nurse.</li><li>This medicine has been prescribed for you only. Do not pass it on to others. It may harm them, even if their signs of illness are the same as yours.</li><li>If you get any side effects, talk to your doctor, pharmacist or nurse. This includes any possible side effects not listed in this leaflet. See section 4.</li></ul></div>"
        },
        "section" : [{
          "title" : "What is in this leaflet",
          "code" : {
            "coding" : [{
              "system" : "https://www.mhra.gov.uk/",
              "code" : "100000155538"
            }],
            "text" : "What is in this leaflet"
          },
          "text" : {
            "status" : "additional",
            "div" : "<div xmlns=\"http://www.w3.org/1999/xhtml\"><ol><li>What Talzenna is and what it is used for</li><li>What you need to know before you take Talzenna</li><li>How to take Talzenna</li><li>Possible side effects</li><li>How to store Talzenna</li><li>Contents of the pack and other information</li></ol></div>"
          }
        }]
      },
      {
        "title" : "1. What Talzenna is and what it is used for",
        "code" : {
          "coding" : [{
            "system" : "https://www.mhra.gov.uk/",
            "code" : "100000155538"
          }],
          "text" : "1. What X is and what it is used for"
        },
        "text" : {
          "status" : "additional",
          "div" : "<div xmlns=\"http://www.w3.org/1999/xhtml\"><p><b>What Talzenna is and how it works</b></p><p>Talzenna contains the active substance talazoparib. It is a type of anticancer medicine known as a ‘PARP (poly-ADP ribose polymerase) inhibitor’.</p><p>Patients with changes (mutations) in genes called BRCA are at risk of developing some forms of cancer. Talzenna works by blocking PARP, which is an enzyme that repairs damaged DNA in certain cancer cells. As a result, the cancer cells can no longer repair themselves and they die.</p><p><b>What Talzenna is used for</b></p><div class=\"breastCancer\"><p>Talzenna is used to treat adults with breast cancer of a type known as HER2-negative breast cancer who have an abnormal inherited BRCA gene.</p><p>Talzenna is used when the cancer has spread beyond the original tumour or to other parts of the body.</p></div><p>Your healthcare provider will perform a test to make sure that Talzenna is right for you.</p><p>If you have any questions about how Talzenna works or why this medicine has been prescribed for you, ask your doctor.</p></div>"
        }
      },
      {
        "title" : "2. What you need to know before you take Talzenna",
        "code" : {
          "coding" : [{
            "system" : "https://www.mhra.gov.uk/",
            "code" : "100000155538"
          }],
          "text" : "2. What you need to know before you take X"
        },
        "section" : [{
          "title" : "Do not take Talzenna",
          "code" : {
            "coding" : [{
              "system" : "https://www.mhra.gov.uk/",
              "code" : "100000155538"
            }],
            "text" : "Do not &lt;take&gt;; &lt;use&gt; X"
          },
          "text" : {
            "status" : "additional",
            "div" : "<div xmlns=\"http://www.w3.org/1999/xhtml\"><ul><li class=\"allergen\"><p>If you are allergic to talazoparib or any of the other ingredients of this medicine (listed in section 6).</p></li><li class=\"breastFeeding\"><p>If you are breast-feeding.</p></li></ul></div>"
          }
        },
        {
          "title" : "Warnings and precautions",
          "code" : {
            "coding" : [{
              "system" : "https://www.mhra.gov.uk/",
              "code" : "100000155538"
            }],
            "text" : "Warnings and precautions"
          },
          "text" : {
            "status" : "additional",
            "div" : "<div xmlns=\"http://www.w3.org/1999/xhtml\"><p>Talk to your doctor, pharmacist or nurse before taking Talzenna and during your treatment if you experience signs or symptoms described in this section.</p><p><em style=\"text-decoration: underline\">Low blood cell counts</em></p><p>Talzenna lowers your blood cell counts, such as your red blood cell count (anaemia), white blood cell count (neutropenia), or blood platelet count (thrombocytopenia). Signs and symptoms you need to look out for include:</p><ul><li><p><b>Anaemia: </b>Being short of breath, feeling very tired, pale skin, or fast heartbeat – these may be</p><p>signs of a low red blood cell count</p></li><li><p><b>Neutropenia: </b>Infection, developing chills or shivering, or fever – these may be signs of a low</p><p>white blood cell count</p></li><li><p><b>Thrombocytopenia: </b>Bruising or bleeding for longer than usual if you hurt yourself – these may be signs of a low blood platelet count</p></li></ul><p>You will have regular blood tests during treatment with Talzenna to check your blood cells (white blood cells, red blood cells, and platelets).</p><p>Serious problems with the bone marrow</p><p>Rarely, low blood cell counts may be a sign of more serious problems with the bone marrow such as myelodysplastic syndrome (MDS) or acute myeloid leukaemia (AML). Your doctor may want to test your bone marrow to check for these problems.</p><p><em style=\"text-decoration: underline\">Male and female contraception</em></p><div class=\"Adolescent Adult Elderly\"><p>Women who can become pregnant and men with partners who are or can become pregnant should use effective contraception.</p><p>Please see section “Male and female contraception” below.</p></div></div>"
          }
        },
        {
          "title" : "Children and adolescents",
          "code" : {
            "coding" : [{
              "system" : "https://www.mhra.gov.uk/",
              "code" : "100000155538"
            }],
            "text" : "Children and adolescents"
          },
          "text" : {
            "status" : "additional",
            "div" : "<div xmlns=\"http://www.w3.org/1999/xhtml\"><p>Talzenna is not to be used in children or adolescents (under 18 years of age).</p></div>"
          }
        },
        {
          "title" : "Other medicines and Talzenna",
          "code" : {
            "coding" : [{
              "system" : "https://www.mhra.gov.uk/",
              "code" : "100000155538"
            }],
            "text" : "Other medicines and Talzenna"
          },
          "text" : {
            "status" : "additional",
            "div" : "<div xmlns=\"http://www.w3.org/1999/xhtml\"><p>Tell your doctor, pharmacist or nurse if you are taking, have recently taken or might take any other medicines. This includes medicines obtained without a prescription and herbal medicines. This is because Talzenna can affect the way some other medicines work. Also some medicines can affect the way Talzenna works.</p><p>In particular, the following may increase the risk of side effects with Talzenna:</p><ul><li class=\"Amiodarone carvedilol dronedarone propafenone quinidine ranolazine verapamil\"><p>Amiodarone, carvedilol, dronedarone, propafenone, quinidine, ranolazine and verapamil – generally used to treat heart problems.</p></li><li class=\"Clarithromycin erythromycinAntibiotics\"><p>Clarithromycin and erythromycin antibiotics – used to treat bacterial infections.</p></li><li class=\"Itraconazole ketoconazole\"><p>Itraconazole and ketoconazole – used to treat fungal infections.</p></li><li class=\"Cobicistat darunavir indinavir lopinavir ritonavir saquinavir telaprevir tipranavir\"><p>Cobicistat, darunavir, indinavir, lopinavir, ritonavir, saquinavir, telaprevir and tipranavir - used to treat HIV infections/AIDS.</p></li><li class=\"Ciclosporin\"><p>Ciclosporin – used in organ transplantation to prevent rejection.</p></li><li class=\"Lapatinib\"><p>Lapatinib – used to treat patients with certain types of breast cancer.</p></li><li class=\"Curcumin turmeric\"><p>Curcumin (e.g. found in turmeric root) in some medicines (see also section Talzenna with food and drink below).</p></li></ul><p>The following medicines may reduce the effect of Talzenna:</p><ul><li class=\"Carbamazepine phenytoin\"><p>Carbamazepine and phenytoin – anti-epileptics used to treat seizures or fits.</p></li><li class=\"StJohnsWort HypericumPerforatum\"><p>St. John’s wort (<i>Hypericum perforatum</i>) – a herbal remedy used to treat mild depression and</p><p>anxiety.</p></li></ul></div>"
          }
        },
        {
          "title" : "Talzenna with food and drink",
          "code" : {
            "coding" : [{
              "system" : "https://www.mhra.gov.uk/",
              "code" : "100000155538"
            }],
            "text" : "X with &lt;food&gt; &lt;and&gt; &lt;,&gt; &lt;drink&gt; &lt;and&gt; &lt;alcohol&gt;"
          },
          "text" : {
            "status" : "additional",
            "div" : "<div xmlns=\"http://www.w3.org/1999/xhtml\"><p>Do not use curcumin in food supplements while you are taking Talzenna as it may increase Talzenna’s side effects. Curcumin is found in turmeric root and you should not use large amounts of turmeric root, but using spices in food is not likely to cause a problem.</p></div>"
          }
        },
        {
          "title" : "Pregnancy",
          "code" : {
            "coding" : [{
              "system" : "https://www.mhra.gov.uk/",
              "code" : "100000155538"
            }],
            "text" : "Pregnancy &lt;and&gt; &lt;,&gt; breast-feeding &lt;and fertility&gt;"
          },
          "text" : {
            "status" : "additional",
            "div" : "<div xmlns=\"http://www.w3.org/1999/xhtml\"><p>Talzenna could harm an unborn baby. <span class=\"Female\">If you are pregnant or breast-feeding, think you may be pregnant or are planning to have a baby, ask your doctor or pharmacist for advice before taking this medicine. Your doctor will perform a pregnancy test prior to starting Talzenna.</span></p><ul><li class=\"Pregnant\"><p>You should not use Talzenna if you are pregnant.</p></li><li class=\"Female\"><p>You should not become pregnant while taking Talzenna.</p></li><li><p>Discuss contraception with your doctor if there is any possibility that you or your partner may become pregnant.</p></li></ul><p><b>Male and female contraception</b></p><div class=\"Female\"><p><b>Women </b>who are able to become pregnant should use effective birth control (contraception) during treatment with Talzenna and for at least 7 months after the last dose of Talzenna. Since the use of hormonal contraception is not recommended if you have breast cancer, you should use two non-hormonal contraception methods.</p><p>Talk to your healthcare provider about birth control methods that may be right for you.</p></div><a/><div class=\"Male\"><p><b>Men </b>with female partners who are pregnant or able to become pregnant should use effective birth control (contraception), even after a vasectomy, during treatment with Talzenna and for at least 4 months after the last dose.</p></div></div>"
          }
        },
        {
          "title" : "Breast-feeding",
          "code" : {
            "coding" : [{
              "system" : "https://www.mhra.gov.uk/",
              "code" : "200000029813"
            }],
            "text" : "Breast-feeding"
          },
          "text" : {
            "status" : "additional",
            "div" : "<div xmlns=\"http://www.w3.org/1999/xhtml\"><p class=\"BreastFeeding\">You should not breast-feed while taking Talzenna and for at least 1 month after the last dose. It is not known if Talzenna passes into breast milk.</p></div>"
          }
        },
        {
          "title" : "Fertility",
          "code" : {
            "coding" : [{
              "system" : "https://www.mhra.gov.uk/",
              "code" : "200000029814"
            }],
            "text" : "Fertility"
          },
          "text" : {
            "status" : "additional",
            "div" : "<div xmlns=\"http://www.w3.org/1999/xhtml\"><p class=\"Male\">Talazoparib may reduce fertility in men.</p></div>"
          }
        },
        {
          "title" : "Driving and using machines",
          "code" : {
            "coding" : [{
              "system" : "https://www.mhra.gov.uk/",
              "code" : "100000155538"
            }],
            "text" : "Driving and using machines"
          },
          "text" : {
            "status" : "additional",
            "div" : "<div xmlns=\"http://www.w3.org/1999/xhtml\"><p>Talzenna may have a minor influence on the ability to drive and use machines. If you feel dizzy, weak, or tired (these are very common side effects of Talzenna), you should not drive or use machines.</p></div>"
          }
        }]
      },
      {
        "title" : "3. How to take Talzenna",
        "code" : {
          "coding" : [{
            "system" : "https://www.mhra.gov.uk/",
            "code" : "100000155538"
          }],
          "text" : "3. How to &lt;take&gt; &lt;use&gt; X"
        },
        "text" : {
          "status" : "additional",
          "div" : "<div xmlns=\"http://www.w3.org/1999/xhtml\"><p>Always take this medicine exactly as your doctor or pharmacist has told you. Check with your doctor or pharmacist if you are not sure.</p><p><b>How much to take</b></p><p>The recommended dose is one 1-mg capsule taken by mouth once daily.</p><p>If you get certain side effects while you are taking Talzenna (see section 4), your doctor may lower your dose or stop treatment, either temporarily or permanently. The dose may be lowered to 0.75 mg (taken as three 0.25-mg capsules) once daily, or 0.5 mg (two 0.25-mg capsules) once daily, or 0.25 mg (one 0.25-mg capsule) once daily.</p><p>Swallow the capsule whole with a glass of water. Do not chew or crush the capsules. You can take Talzenna with food or between meals. Do not open the capsules. Contact with the capsule content should be avoided.</p></div>"
        },
        "section" : [{
          "title" : "If you take more Talzenna than you should",
          "code" : {
            "coding" : [{
              "system" : "https://www.mhra.gov.uk/",
              "code" : "100000155538"
            }],
            "text" : "If you &lt;take&gt; &lt;use&gt; more X than you should"
          },
          "text" : {
            "status" : "additional",
            "div" : "<div xmlns=\"http://www.w3.org/1999/xhtml\"><p>If you have taken more Talzenna than your normal dose, contact your doctor or nearest hospital right away. Urgent treatment may be necessary.</p><p>Take the carton and this leaflet so that the doctor knows what you have been taking.</p></div>"
          }
        },
        {
          "title" : "If you forget to take Talzenna",
          "code" : {
            "coding" : [{
              "system" : "https://www.mhra.gov.uk/",
              "code" : "100000155538"
            }],
            "text" : "If you forget to &lt;take&gt; &lt;use&gt; X"
          },
          "text" : {
            "status" : "additional",
            "div" : "<div xmlns=\"http://www.w3.org/1999/xhtml\"><p>If you miss a dose or vomit, take your next dose as scheduled. Do not take a double dose to make up for the forgotten or vomited capsules.</p></div>"
          }
        },
        {
          "title" : "If you stop taking Talzenna",
          "code" : {
            "coding" : [{
              "system" : "https://www.mhra.gov.uk/",
              "code" : "100000155538"
            }],
            "text" : "If you stop &lt;taking&gt; &lt;using&gt; X"
          },
          "text" : {
            "status" : "additional",
            "div" : "<div xmlns=\"http://www.w3.org/1999/xhtml\"><p>Do not stop taking Talzenna unless your doctor tells you to.</p><p>If you have any further questions on the use of this medicine, ask your doctor or pharmacist or nurse.</p></div>"
          }
        }]
      },
      {
        "title" : "4. Possible side effects",
        "code" : {
          "coding" : [{
            "system" : "https://www.mhra.gov.uk/",
            "code" : "100000155538"
          }],
          "text" : "4. Possible side effects"
        },
        "text" : {
          "status" : "additional",
          "div" : "<div xmlns=\"http://www.w3.org/1999/xhtml\"><p>Like all medicines, this medicine can cause side effects, although not everybody gets them.</p><p><b>Tell your doctor straight away if you notice any of the following symptoms which could be a sign of serious blood disorder:</b></p><p><b>Very common</b> (may affect more than 1 in 10 people)</p><ul><li>Being short of breath, feeling very tired, having pale skin, or fast heartbeat – these may be signs of a low red blood cell count (anaemia).</li><li>Infection, developing chills or shivering, or fever or feeling hot – these may be signs of a low white blood cell count (neutropenia).</li><li>Bruising or bleeding for longer than usual if you hurt yourself – these may be signs of a low blood platelet count (thrombocytopenia).</li></ul><p><b>Talk to your doctor if you get any other side effects. These can include:</b></p><p><b>Very common</b> (may affect more than 1 in 10 people)</p><ul><li>Low counts of white blood cells, red blood cells, and blood platelets</li><li>Decreased appetite</li><li>Feeling dizzy</li><li>Headache</li><li>Feeling sick (nausea)</li><li>Being sick (vomiting)</li><li>Diarrhoea</li><li>Pain in the abdomen</li><li>Hair loss</li></ul><p><b>Common</b> (may affect up to 1 in 10 people)</p><ul><li>Alteration in taste (dysgeusia)</li><li>Indigestion</li><li>Mouth inflammation</li></ul></div>"
        },
        "section" : [{
          "title" : "Reporting of side effects",
          "code" : {
            "coding" : [{
              "system" : "https://www.mhra.gov.uk/",
              "code" : "100000155538"
            }],
            "text" : "Reporting of side effects"
          },
          "text" : {
            "status" : "additional",
            "div" : "<div xmlns=\"http://www.w3.org/1999/xhtml\"><p>If you get any side effects, talk to your doctor, pharmacist or nurse. This includes any possible side effects not listed in this leaflet. You can also report side effects directly via the Yellow Card Scheme at: <a href=\"http://www.mhra.gov.uk/yellowcard\">www.mhra.gov.uk/yellowcard</a> or search for MHRA Yellow Card in the Google Play or Apple App Store. By reporting side effects you can help provide more information on the safety of this medicine.</p></div>"
          }
        }]
      },
      {
        "title" : "5. How to store Talzenna",
        "code" : {
          "coding" : [{
            "system" : "https://www.mhra.gov.uk/",
            "code" : "100000155538"
          }],
          "text" : "5. How to store X"
        },
        "text" : {
          "status" : "additional",
          "div" : "<div xmlns=\"http://www.w3.org/1999/xhtml\"><p>Keep this medicine out of the sight and reach of children.</p><p>Do not use this medicine after the expiry date which is stated on the carton and the bottle or blister after EXP. The expiry date refers to the last day of that month.</p><p>This medicine does not require any special storage conditions.</p><p>Do not use this medicine if the pack is damaged or shows signs of tampering.</p><p>Do not throw away any medicines via wastewater or household waste. Ask your pharmacist how to throw away medicines you no longer use. These measures will help protect the environment.</p></div>"
        }
      },
      {
        "title" : "6. Contents of the pack and other information",
        "code" : {
          "coding" : [{
            "system" : "https://www.mhra.gov.uk/",
            "code" : "100000155538"
          }],
          "text" : "6. Contents of the pack and other information"
        },
        "section" : [{
          "title" : "What Talzenna contains",
          "code" : {
            "coding" : [{
              "system" : "https://www.mhra.gov.uk/",
              "code" : "100000155538"
            }],
            "text" : "What X contains"
          },
          "text" : {
            "status" : "additional",
            "div" : "<div xmlns=\"http://www.w3.org/1999/xhtml\"><ul><li><p>The active substance is talazoparib. Talzenna hard capsules come in different strengths.</p></li><li class=\"mg-025\"><p>Talzenna 0.25 mg hard capsules: each capsule contains talazoparib tosylate equivalent to 0.25 mg talazoparib.</p></li><li class=\"mg-1\"><p>Talzenna 1 mg hard capsules: each capsule contains talazoparib tosylate equivalent to 1 mg talazoparib.</p></li></ul><p>The other ingredients are:</p><ul><li><p>Capsule content: silicified microcrystalline cellulose (sMCC) (microcrystalline cellulose and silicone dioxide).</p></li><li class=\"mg-025\"><p>0.25 mg capsule shell: hypromellose (HPMC), yellow iron oxide (E172), and titanium dioxide (E171)</p></li><li class=\"mg-1\"><p>1 mg capsule shell: hypromellose (HPMC), yellow iron oxide (E172), titanium dioxide (E171), and red iron oxide (E172)</p></li></ul><p>Printing ink: shellac (E904), propylene glycol (E1520), ammonium hydroxide (E527), black iron oxide (E172), and potassium hydroxide (E525).</p></div>"
          }
        },
        {
          "title" : "What Talzenna looks like and contents of the pack",
          "code" : {
            "coding" : [{
              "system" : "https://www.mhra.gov.uk/",
              "code" : "100000155538"
            }],
            "text" : "What X looks like and contents of the pack"
          },
          "text" : {
            "status" : "additional",
            "div" : "<div xmlns=\"http://www.w3.org/1999/xhtml\"><p class=\"mg-025\">Talzenna 0.25 mg is supplied as opaque, approximately 14.30 mm x 5.32 mm hard capsule with an ivory cap (printed with “Pfizer” in black) and a white body (printed with “TLZ 0.25” in black).</p><p class=\"mg-1\">Talzenna 1 mg is supplied as opaque, approximately 14.30 mm x 5.32 mm hard capsule with a light red cap (printed with “Pfizer” in black) and a white body (printed with “TLZ 1” in black).</p><p class=\"mg-025\">Talzenna 0.25 mg is available in perforated unit dose blister packs of 30, or 60, or 90 hard capsules and in plastic bottles of 30 hard capsules.</p><p class=\"mg-1\">Talzenna 1 mg is available in perforated unit dose blister packs of 30 hard capsules and in plastic bottles of 30 hard capsules.</p><p>Not all pack sizes may be marketed.</p></div>"
          }
        },
        {
          "title" : "Marketing Authorization Holder and Manufacturer",
          "code" : {
            "coding" : [{
              "system" : "https://www.mhra.gov.uk/",
              "code" : "100000155538"
            }],
            "text" : "Marketing Authorization Holder and Manufacturer"
          },
          "text" : {
            "status" : "additional",
            "div" : "<div xmlns=\"http://www.w3.org/1999/xhtml\"><p>Pfizer Limited</p><p>Ramsgate Road</p><p>Sandwich</p><p>Kent</p><p>CT13 9NJ</p><p>United Kingdom</p><p><b>Manufacturer</b></p><p>Excella GmbH &amp; Co. KG</p><p>Nürnberger Strasse 12</p><p>90537 Feucht</p><p>Germany</p><p>For any information about this medicine, please contact:</p><p>Medical Information, Pfizer Ltd, Walton Oaks, Dorking Road, Tadworth, Surrey, KT20 7NS.</p><p>Telephone 01304 616161</p><p><b>This leaflet was last revised in 12/2021</b></p></div>"
          }
        }]
      }]
    }
  },
  {
    "fullUrl" : "http://hl7.eu/fhir/ig/gravitate-health/Ingredient/talazoparib025mg",
    "resource" : {
      "resourceType" : "Ingredient",
      "id" : "talazoparib025mg",
      "meta" : {
        "profile" : ["http://hl7.org/fhir/uv/emedicinal-product-info/StructureDefinition/Ingredient-uv-epi"]
      },
      "text" : {
        "status" : "generated",
        "div" : "<div xmlns=\"http://www.w3.org/1999/xhtml\"><p><b>Generated Narrative: Ingredient</b><a name=\"talazoparib025mg\"> </a></p><div style=\"display: inline-block; background-color: #d9e0e7; padding: 6px; margin: 4px; border: 1px solid #8da1b4; border-radius: 5px; line-height: 60%\"><p style=\"margin-bottom: 0px\">Resource Ingredient &quot;talazoparib025mg&quot; </p><p style=\"margin-bottom: 0px\">Profile: <a href=\"https://build.fhir.org/ig/HL7/emedicinal-product-info//StructureDefinition-Ingredient-uv-epi.html\">Ingredient (ePI)</a></p></div><p><b>identifier</b>: id:\u00a09QHX048FRV\u00a0(use:\u00a0OFFICIAL)</p><p><b>status</b>: active</p><p><b>for</b>: <a href=\"#ManufacturedItemDefinition_mid025mg\">See above (ManufacturedItemDefinition/mid025mg)</a></p><p><b>role</b>: Active <span style=\"background: LightGoldenRodYellow; margin: 4px; border: 1px solid khaki\"> (rmswi#100000072072)</span></p><p><b>allergenicIndicator</b>: false</p><h3>Manufacturers</h3><table class=\"grid\"><tr><td style=\"display: none\">-</td><td><b>Manufacturer</b></td></tr><tr><td style=\"display: none\">*</td><td><a href=\"#Organization_orgpfizerukltd\">See above (Organization/orgpfizerukltd)</a></td></tr></table><blockquote><p><b>substance</b></p><h3>Codes</h3><table class=\"grid\"><tr><td style=\"display: none\">-</td><td><b>Concept</b></td></tr><tr><td style=\"display: none\">*</td><td>TALAZOPARIB <span style=\"background: LightGoldenRodYellow; margin: 4px; border: 1px solid khaki\"> (beta#9QHX048FRV)</span></td></tr></table><h3>Strengths</h3><table class=\"grid\"><tr><td style=\"display: none\">-</td><td><b>Presentation[x]</b></td><td><b>Basis</b></td></tr><tr><td style=\"display: none\">*</td><td>0.25 mg</td><td>active ingredient - basis of strength <span style=\"background: LightGoldenRodYellow; margin: 4px; border: 1px solid khaki\"> (<a href=\"http://terminology.hl7.org/5.3.0/CodeSystem-v3-RoleClass.html\">RoleClass</a>#ACTIB)</span></td></tr></table></blockquote></div>"
      },
      "identifier" : {
        "use" : "official",
        "system" : "https://gsrs.ncats.nih.gov/ginas/app/beta",
        "value" : "9QHX048FRV"
      },
      "status" : "active",
      "for" : [{
        "reference" : "ManufacturedItemDefinition/mid025mg"
      }],
      "role" : {
        "coding" : [{
          "system" : "https://spor.ema.europa.eu/rmswi",
          "code" : "100000072072",
          "display" : "Active"
        }]
      },
      "allergenicIndicator" : false,
      "manufacturer" : [{
        "manufacturer" : {
          "reference" : "Organization/orgpfizerukltd"
        }
      }],
      "substance" : {
        "code" : {
          "concept" : {
            "coding" : [{
              "system" : "https://gsrs.ncats.nih.gov/ginas/app/beta",
              "code" : "9QHX048FRV",
              "display" : "TALAZOPARIB"
            }]
          }
        },
        "strength" : [{
          "presentationQuantity" : {
            "value" : 0.25,
            "unit" : "mg"
          },
          "basis" : {
            "coding" : [{
              "system" : "http://terminology.hl7.org/CodeSystem/v3-RoleClass",
              "code" : "ACTIB"
            }],
            "text" : "active ingredient - basis of strength"
          }
        }]
      }
    }
  },
  {
    "fullUrl" : "http://hl7.eu/fhir/ig/gravitate-health/Ingredient/talazoparib1mg",
    "resource" : {
      "resourceType" : "Ingredient",
      "id" : "talazoparib1mg",
      "meta" : {
        "profile" : ["http://hl7.org/fhir/uv/emedicinal-product-info/StructureDefinition/Ingredient-uv-epi"]
      },
      "text" : {
        "status" : "generated",
        "div" : "<div xmlns=\"http://www.w3.org/1999/xhtml\"><p><b>Generated Narrative: Ingredient</b><a name=\"talazoparib1mg\"> </a></p><div style=\"display: inline-block; background-color: #d9e0e7; padding: 6px; margin: 4px; border: 1px solid #8da1b4; border-radius: 5px; line-height: 60%\"><p style=\"margin-bottom: 0px\">Resource Ingredient &quot;talazoparib1mg&quot; </p><p style=\"margin-bottom: 0px\">Profile: <a href=\"https://build.fhir.org/ig/HL7/emedicinal-product-info//StructureDefinition-Ingredient-uv-epi.html\">Ingredient (ePI)</a></p></div><p><b>identifier</b>: id:\u00a09QHX048FRV\u00a0(use:\u00a0OFFICIAL)</p><p><b>status</b>: active</p><p><b>for</b>: <a href=\"#ManufacturedItemDefinition_mid025mg\">See above (ManufacturedItemDefinition/mid025mg)</a></p><p><b>role</b>: Active <span style=\"background: LightGoldenRodYellow; margin: 4px; border: 1px solid khaki\"> (rmswi#100000072072)</span></p><p><b>allergenicIndicator</b>: false</p><h3>Manufacturers</h3><table class=\"grid\"><tr><td style=\"display: none\">-</td><td><b>Manufacturer</b></td></tr><tr><td style=\"display: none\">*</td><td><a href=\"#Organization_orgpfizerukltd\">See above (Organization/orgpfizerukltd)</a></td></tr></table><blockquote><p><b>substance</b></p><h3>Codes</h3><table class=\"grid\"><tr><td style=\"display: none\">-</td><td><b>Concept</b></td></tr><tr><td style=\"display: none\">*</td><td>TALAZOPARIB <span style=\"background: LightGoldenRodYellow; margin: 4px; border: 1px solid khaki\"> (beta#9QHX048FRV)</span></td></tr></table><h3>Strengths</h3><table class=\"grid\"><tr><td style=\"display: none\">-</td><td><b>Presentation[x]</b></td><td><b>Basis</b></td></tr><tr><td style=\"display: none\">*</td><td>1 mg</td><td>active ingredient - basis of strength <span style=\"background: LightGoldenRodYellow; margin: 4px; border: 1px solid khaki\"> (<a href=\"http://terminology.hl7.org/5.3.0/CodeSystem-v3-RoleClass.html\">RoleClass</a>#ACTIB)</span></td></tr></table></blockquote></div>"
      },
      "identifier" : {
        "use" : "official",
        "system" : "https://gsrs.ncats.nih.gov/ginas/app/beta",
        "value" : "9QHX048FRV"
      },
      "status" : "active",
      "for" : [{
        "reference" : "ManufacturedItemDefinition/mid025mg"
      }],
      "role" : {
        "coding" : [{
          "system" : "https://spor.ema.europa.eu/rmswi",
          "code" : "100000072072",
          "display" : "Active"
        }]
      },
      "allergenicIndicator" : false,
      "manufacturer" : [{
        "manufacturer" : {
          "reference" : "Organization/orgpfizerukltd"
        }
      }],
      "substance" : {
        "code" : {
          "concept" : {
            "coding" : [{
              "system" : "https://gsrs.ncats.nih.gov/ginas/app/beta",
              "code" : "9QHX048FRV",
              "display" : "TALAZOPARIB"
            }]
          }
        },
        "strength" : [{
          "presentationQuantity" : {
            "value" : 1,
            "unit" : "mg"
          },
          "basis" : {
            "coding" : [{
              "system" : "http://terminology.hl7.org/CodeSystem/v3-RoleClass",
              "code" : "ACTIB"
            }],
            "text" : "active ingredient - basis of strength"
          }
        }]
      }
    }
  },
  {
    "fullUrl" : "http://hl7.eu/fhir/ig/gravitate-health/Ingredient/ingredientMICROCRYSTALLINECELLULOSE",
    "resource" : {
      "resourceType" : "Ingredient",
      "id" : "ingredientMICROCRYSTALLINECELLULOSE",
      "meta" : {
        "profile" : ["http://hl7.org/fhir/uv/emedicinal-product-info/StructureDefinition/Ingredient-uv-epi"]
      },
      "text" : {
        "status" : "generated",
        "div" : "<div xmlns=\"http://www.w3.org/1999/xhtml\"><p><b>Generated Narrative: Ingredient</b><a name=\"ingredientMICROCRYSTALLINECELLULOSE\"> </a></p><div style=\"display: inline-block; background-color: #d9e0e7; padding: 6px; margin: 4px; border: 1px solid #8da1b4; border-radius: 5px; line-height: 60%\"><p style=\"margin-bottom: 0px\">Resource Ingredient &quot;ingredientMICROCRYSTALLINECELLULOSE&quot; </p><p style=\"margin-bottom: 0px\">Profile: <a href=\"https://build.fhir.org/ig/HL7/emedicinal-product-info//StructureDefinition-Ingredient-uv-epi.html\">Ingredient (ePI)</a></p></div><p><b>identifier</b>: id:\u00a0OP1R32D61U\u00a0(use:\u00a0OFFICIAL)</p><p><b>status</b>: active</p><p><b>for</b>: </p><ul><li><a href=\"#MedicinalProductDefinition_mp1mg\">See above (MedicinalProductDefinition/mp1mg)</a></li><li><a href=\"#MedicinalProductDefinition_mp025mg\">See above (MedicinalProductDefinition/mp025mg)</a></li></ul><p><b>role</b>: Excipient <span style=\"background: LightGoldenRodYellow; margin: 4px; border: 1px solid khaki\"> (rmswi#100000072082)</span></p><p><b>allergenicIndicator</b>: false</p><h3>Manufacturers</h3><table class=\"grid\"><tr><td style=\"display: none\">-</td><td><b>Manufacturer</b></td></tr><tr><td style=\"display: none\">*</td><td><a href=\"#Organization_orgpfizerukltd\">See above (Organization/orgpfizerukltd)</a></td></tr></table><blockquote><p><b>substance</b></p><h3>Codes</h3><table class=\"grid\"><tr><td style=\"display: none\">-</td><td><b>Concept</b></td></tr><tr><td style=\"display: none\">*</td><td>MICROCRYSTALLINE CELLULOSE <span style=\"background: LightGoldenRodYellow; margin: 4px; border: 1px solid khaki\"> (beta#OP1R32D61U)</span></td></tr></table></blockquote></div>"
      },
      "identifier" : {
        "use" : "official",
        "system" : "https://gsrs.ncats.nih.gov/ginas/app/beta",
        "value" : "OP1R32D61U"
      },
      "status" : "active",
      "for" : [{
        "reference" : "MedicinalProductDefinition/mp1mg"
      },
      {
        "reference" : "MedicinalProductDefinition/mp025mg"
      }],
      "role" : {
        "coding" : [{
          "system" : "https://spor.ema.europa.eu/rmswi",
          "code" : "100000072082",
          "display" : "Excipient"
        }]
      },
      "allergenicIndicator" : false,
      "manufacturer" : [{
        "manufacturer" : {
          "reference" : "Organization/orgpfizerukltd"
        }
      }],
      "substance" : {
        "code" : {
          "concept" : {
            "coding" : [{
              "system" : "https://gsrs.ncats.nih.gov/ginas/app/beta",
              "code" : "OP1R32D61U",
              "display" : "MICROCRYSTALLINE CELLULOSE"
            }]
          }
        }
      }
    }
  },
  {
    "fullUrl" : "http://hl7.eu/fhir/ig/gravitate-health/Ingredient/ingredientSILICONDIOXIDE",
    "resource" : {
      "resourceType" : "Ingredient",
      "id" : "ingredientSILICONDIOXIDE",
      "meta" : {
        "profile" : ["http://hl7.org/fhir/uv/emedicinal-product-info/StructureDefinition/Ingredient-uv-epi"]
      },
      "text" : {
        "status" : "generated",
        "div" : "<div xmlns=\"http://www.w3.org/1999/xhtml\"><p><b>Generated Narrative: Ingredient</b><a name=\"ingredientSILICONDIOXIDE\"> </a></p><div style=\"display: inline-block; background-color: #d9e0e7; padding: 6px; margin: 4px; border: 1px solid #8da1b4; border-radius: 5px; line-height: 60%\"><p style=\"margin-bottom: 0px\">Resource Ingredient &quot;ingredientSILICONDIOXIDE&quot; </p><p style=\"margin-bottom: 0px\">Profile: <a href=\"https://build.fhir.org/ig/HL7/emedicinal-product-info//StructureDefinition-Ingredient-uv-epi.html\">Ingredient (ePI)</a></p></div><p><b>identifier</b>: id:\u00a0ETJ7Z6XBU4\u00a0(use:\u00a0OFFICIAL)</p><p><b>status</b>: active</p><p><b>for</b>: </p><ul><li><a href=\"#MedicinalProductDefinition_mp1mg\">See above (MedicinalProductDefinition/mp1mg)</a></li><li><a href=\"#MedicinalProductDefinition_mp025mg\">See above (MedicinalProductDefinition/mp025mg)</a></li></ul><p><b>role</b>: Excipient <span style=\"background: LightGoldenRodYellow; margin: 4px; border: 1px solid khaki\"> (rmswi#100000072082)</span></p><p><b>allergenicIndicator</b>: false</p><h3>Manufacturers</h3><table class=\"grid\"><tr><td style=\"display: none\">-</td><td><b>Manufacturer</b></td></tr><tr><td style=\"display: none\">*</td><td><a href=\"#Organization_orgpfizerukltd\">See above (Organization/orgpfizerukltd)</a></td></tr></table><blockquote><p><b>substance</b></p><h3>Codes</h3><table class=\"grid\"><tr><td style=\"display: none\">-</td><td><b>Concept</b></td></tr><tr><td style=\"display: none\">*</td><td>SILICON DIOXIDE <span style=\"background: LightGoldenRodYellow; margin: 4px; border: 1px solid khaki\"> (beta#15FIX9V2JP)</span></td></tr></table></blockquote></div>"
      },
      "identifier" : {
        "use" : "official",
        "system" : "https://gsrs.ncats.nih.gov/ginas/app/beta",
        "value" : "ETJ7Z6XBU4"
      },
      "status" : "active",
      "for" : [{
        "reference" : "MedicinalProductDefinition/mp1mg"
      },
      {
        "reference" : "MedicinalProductDefinition/mp025mg"
      }],
      "role" : {
        "coding" : [{
          "system" : "https://spor.ema.europa.eu/rmswi",
          "code" : "100000072082",
          "display" : "Excipient"
        }]
      },
      "allergenicIndicator" : false,
      "manufacturer" : [{
        "manufacturer" : {
          "reference" : "Organization/orgpfizerukltd"
        }
      }],
      "substance" : {
        "code" : {
          "concept" : {
            "coding" : [{
              "system" : "https://gsrs.ncats.nih.gov/ginas/app/beta",
              "code" : "15FIX9V2JP",
              "display" : "SILICON DIOXIDE"
            }]
          }
        }
      }
    }
  },
  {
    "fullUrl" : "http://hl7.eu/fhir/ig/gravitate-health/Ingredient/ingredientHYPROMELLOSE",
    "resource" : {
      "resourceType" : "Ingredient",
      "id" : "ingredientHYPROMELLOSE",
      "meta" : {
        "profile" : ["http://hl7.org/fhir/uv/emedicinal-product-info/StructureDefinition/Ingredient-uv-epi"]
      },
      "text" : {
        "status" : "generated",
        "div" : "<div xmlns=\"http://www.w3.org/1999/xhtml\"><p><b>Generated Narrative: Ingredient</b><a name=\"ingredientHYPROMELLOSE\"> </a></p><div style=\"display: inline-block; background-color: #d9e0e7; padding: 6px; margin: 4px; border: 1px solid #8da1b4; border-radius: 5px; line-height: 60%\"><p style=\"margin-bottom: 0px\">Resource Ingredient &quot;ingredientHYPROMELLOSE&quot; </p><p style=\"margin-bottom: 0px\">Profile: <a href=\"https://build.fhir.org/ig/HL7/emedicinal-product-info//StructureDefinition-Ingredient-uv-epi.html\">Ingredient (ePI)</a></p></div><p><b>identifier</b>: id:\u00a03NXW29V3WO\u00a0(use:\u00a0OFFICIAL)</p><p><b>status</b>: active</p><p><b>for</b>: </p><ul><li><a href=\"#MedicinalProductDefinition_mp1mg\">See above (MedicinalProductDefinition/mp1mg)</a></li><li><a href=\"#MedicinalProductDefinition_mp025mg\">See above (MedicinalProductDefinition/mp025mg)</a></li></ul><p><b>role</b>: Excipient <span style=\"background: LightGoldenRodYellow; margin: 4px; border: 1px solid khaki\"> (rmswi#100000072082)</span></p><p><b>allergenicIndicator</b>: false</p><h3>Manufacturers</h3><table class=\"grid\"><tr><td style=\"display: none\">-</td><td><b>Manufacturer</b></td></tr><tr><td style=\"display: none\">*</td><td><a href=\"#Organization_orgpfizerukltd\">See above (Organization/orgpfizerukltd)</a></td></tr></table><blockquote><p><b>substance</b></p><h3>Codes</h3><table class=\"grid\"><tr><td style=\"display: none\">-</td><td><b>Concept</b></td></tr><tr><td style=\"display: none\">*</td><td>HYPROMELLOSE, UNSPECIFIED <span style=\"background: LightGoldenRodYellow; margin: 4px; border: 1px solid khaki\"> (beta#3NXW29V3WO)</span></td></tr></table><h3>Strengths</h3><table class=\"grid\"><tr><td style=\"display: none\">-</td><td><b>Basis</b></td></tr><tr><td style=\"display: none\">*</td><td>active ingredient - basis of strength <span style=\"background: LightGoldenRodYellow; margin: 4px; border: 1px solid khaki\"> (<a href=\"http://terminology.hl7.org/5.3.0/CodeSystem-v3-RoleClass.html\">RoleClass</a>#ACTIB)</span></td></tr></table></blockquote></div>"
      },
      "identifier" : {
        "use" : "official",
        "system" : "https://gsrs.ncats.nih.gov/ginas/app/beta",
        "value" : "3NXW29V3WO"
      },
      "status" : "active",
      "for" : [{
        "reference" : "MedicinalProductDefinition/mp1mg"
      },
      {
        "reference" : "MedicinalProductDefinition/mp025mg"
      }],
      "role" : {
        "coding" : [{
          "system" : "https://spor.ema.europa.eu/rmswi",
          "code" : "100000072082",
          "display" : "Excipient"
        }]
      },
      "allergenicIndicator" : false,
      "manufacturer" : [{
        "manufacturer" : {
          "reference" : "Organization/orgpfizerukltd"
        }
      }],
      "substance" : {
        "code" : {
          "concept" : {
            "coding" : [{
              "system" : "https://gsrs.ncats.nih.gov/ginas/app/beta",
              "code" : "3NXW29V3WO",
              "display" : "HYPROMELLOSE, UNSPECIFIED"
            }]
          }
        },
        "strength" : [{
          "basis" : {
            "coding" : [{
              "system" : "http://terminology.hl7.org/CodeSystem/v3-RoleClass",
              "code" : "ACTIB",
              "display" : "active ingredient - basis of strength"
            }]
          }
        }]
      }
    }
  },
  {
    "fullUrl" : "http://hl7.eu/fhir/ig/gravitate-health/Ingredient/ingredientFERRICOXIDEYELLOW",
    "resource" : {
      "resourceType" : "Ingredient",
      "id" : "ingredientFERRICOXIDEYELLOW",
      "meta" : {
        "profile" : ["http://hl7.org/fhir/uv/emedicinal-product-info/StructureDefinition/Ingredient-uv-epi"]
      },
      "text" : {
        "status" : "generated",
        "div" : "<div xmlns=\"http://www.w3.org/1999/xhtml\"><p><b>Generated Narrative: Ingredient</b><a name=\"ingredientFERRICOXIDEYELLOW\"> </a></p><div style=\"display: inline-block; background-color: #d9e0e7; padding: 6px; margin: 4px; border: 1px solid #8da1b4; border-radius: 5px; line-height: 60%\"><p style=\"margin-bottom: 0px\">Resource Ingredient &quot;ingredientFERRICOXIDEYELLOW&quot; </p><p style=\"margin-bottom: 0px\">Profile: <a href=\"https://build.fhir.org/ig/HL7/emedicinal-product-info//StructureDefinition-Ingredient-uv-epi.html\">Ingredient (ePI)</a></p></div><p><b>identifier</b>: id:\u00a0EX438O2MRT\u00a0(use:\u00a0OFFICIAL)</p><p><b>status</b>: active</p><p><b>for</b>: </p><ul><li><a href=\"#MedicinalProductDefinition_mp1mg\">See above (MedicinalProductDefinition/mp1mg)</a></li><li><a href=\"#MedicinalProductDefinition_mp025mg\">See above (MedicinalProductDefinition/mp025mg)</a></li></ul><p><b>role</b>: Excipient <span style=\"background: LightGoldenRodYellow; margin: 4px; border: 1px solid khaki\"> (rmswi#100000072082)</span></p><p><b>allergenicIndicator</b>: false</p><h3>Manufacturers</h3><table class=\"grid\"><tr><td style=\"display: none\">-</td><td><b>Manufacturer</b></td></tr><tr><td style=\"display: none\">*</td><td><a href=\"#Organization_orgpfizerukltd\">See above (Organization/orgpfizerukltd)</a></td></tr></table><blockquote><p><b>substance</b></p><h3>Codes</h3><table class=\"grid\"><tr><td style=\"display: none\">-</td><td><b>Concept</b></td></tr><tr><td style=\"display: none\">*</td><td>FERRIC OXIDE YELLOW <span style=\"background: LightGoldenRodYellow; margin: 4px; border: 1px solid khaki\"> (beta#EX438O2MRT)</span></td></tr></table><h3>Strengths</h3><table class=\"grid\"><tr><td style=\"display: none\">-</td><td><b>Basis</b></td></tr><tr><td style=\"display: none\">*</td><td>active ingredient - basis of strength <span style=\"background: LightGoldenRodYellow; margin: 4px; border: 1px solid khaki\"> (<a href=\"http://terminology.hl7.org/5.3.0/CodeSystem-v3-RoleClass.html\">RoleClass</a>#ACTIB)</span></td></tr></table></blockquote></div>"
      },
      "identifier" : {
        "use" : "official",
        "system" : "https://gsrs.ncats.nih.gov/ginas/app/beta",
        "value" : "EX438O2MRT"
      },
      "status" : "active",
      "for" : [{
        "reference" : "MedicinalProductDefinition/mp1mg"
      },
      {
        "reference" : "MedicinalProductDefinition/mp025mg"
      }],
      "role" : {
        "coding" : [{
          "system" : "https://spor.ema.europa.eu/rmswi",
          "code" : "100000072082",
          "display" : "Excipient"
        }]
      },
      "allergenicIndicator" : false,
      "manufacturer" : [{
        "manufacturer" : {
          "reference" : "Organization/orgpfizerukltd"
        }
      }],
      "substance" : {
        "code" : {
          "concept" : {
            "coding" : [{
              "system" : "https://gsrs.ncats.nih.gov/ginas/app/beta",
              "code" : "EX438O2MRT",
              "display" : "FERRIC OXIDE YELLOW"
            }]
          }
        },
        "strength" : [{
          "basis" : {
            "coding" : [{
              "system" : "http://terminology.hl7.org/CodeSystem/v3-RoleClass",
              "code" : "ACTIB",
              "display" : "active ingredient - basis of strength"
            }]
          }
        }]
      }
    }
  },
  {
    "fullUrl" : "http://hl7.eu/fhir/ig/gravitate-health/Ingredient/ingredientTITANIUMDIOXIDE",
    "resource" : {
      "resourceType" : "Ingredient",
      "id" : "ingredientTITANIUMDIOXIDE",
      "meta" : {
        "profile" : ["http://hl7.org/fhir/uv/emedicinal-product-info/StructureDefinition/Ingredient-uv-epi"]
      },
      "text" : {
        "status" : "generated",
        "div" : "<div xmlns=\"http://www.w3.org/1999/xhtml\"><p><b>Generated Narrative: Ingredient</b><a name=\"ingredientTITANIUMDIOXIDE\"> </a></p><div style=\"display: inline-block; background-color: #d9e0e7; padding: 6px; margin: 4px; border: 1px solid #8da1b4; border-radius: 5px; line-height: 60%\"><p style=\"margin-bottom: 0px\">Resource Ingredient &quot;ingredientTITANIUMDIOXIDE&quot; </p><p style=\"margin-bottom: 0px\">Profile: <a href=\"https://build.fhir.org/ig/HL7/emedicinal-product-info//StructureDefinition-Ingredient-uv-epi.html\">Ingredient (ePI)</a></p></div><p><b>identifier</b>: id:\u00a015FIX9V2JP\u00a0(use:\u00a0OFFICIAL)</p><p><b>status</b>: active</p><p><b>for</b>: </p><ul><li><a href=\"#MedicinalProductDefinition_mp1mg\">See above (MedicinalProductDefinition/mp1mg)</a></li><li><a href=\"#MedicinalProductDefinition_mp025mg\">See above (MedicinalProductDefinition/mp025mg)</a></li></ul><p><b>role</b>: Excipient <span style=\"background: LightGoldenRodYellow; margin: 4px; border: 1px solid khaki\"> (rmswi#100000072082)</span></p><p><b>allergenicIndicator</b>: false</p><h3>Manufacturers</h3><table class=\"grid\"><tr><td style=\"display: none\">-</td><td><b>Manufacturer</b></td></tr><tr><td style=\"display: none\">*</td><td><a href=\"#Organization_orgpfizerukltd\">See above (Organization/orgpfizerukltd)</a></td></tr></table><blockquote><p><b>substance</b></p><h3>Codes</h3><table class=\"grid\"><tr><td style=\"display: none\">-</td><td><b>Concept</b></td></tr><tr><td style=\"display: none\">*</td><td>TITANIUM DIOXIDE <span style=\"background: LightGoldenRodYellow; margin: 4px; border: 1px solid khaki\"> (beta#15FIX9V2JP)</span></td></tr></table><h3>Strengths</h3><table class=\"grid\"><tr><td style=\"display: none\">-</td><td><b>Basis</b></td></tr><tr><td style=\"display: none\">*</td><td>active ingredient - basis of strength <span style=\"background: LightGoldenRodYellow; margin: 4px; border: 1px solid khaki\"> (<a href=\"http://terminology.hl7.org/5.3.0/CodeSystem-v3-RoleClass.html\">RoleClass</a>#ACTIB)</span></td></tr></table></blockquote></div>"
      },
      "identifier" : {
        "use" : "official",
        "system" : "https://gsrs.ncats.nih.gov/ginas/app/beta",
        "value" : "15FIX9V2JP"
      },
      "status" : "active",
      "for" : [{
        "reference" : "MedicinalProductDefinition/mp1mg"
      },
      {
        "reference" : "MedicinalProductDefinition/mp025mg"
      }],
      "role" : {
        "coding" : [{
          "system" : "https://spor.ema.europa.eu/rmswi",
          "code" : "100000072082",
          "display" : "Excipient"
        }]
      },
      "allergenicIndicator" : false,
      "manufacturer" : [{
        "manufacturer" : {
          "reference" : "Organization/orgpfizerukltd"
        }
      }],
      "substance" : {
        "code" : {
          "concept" : {
            "coding" : [{
              "system" : "https://gsrs.ncats.nih.gov/ginas/app/beta",
              "code" : "15FIX9V2JP",
              "display" : "TITANIUM DIOXIDE"
            }]
          }
        },
        "strength" : [{
          "basis" : {
            "coding" : [{
              "system" : "http://terminology.hl7.org/CodeSystem/v3-RoleClass",
              "code" : "ACTIB",
              "display" : "active ingredient - basis of strength"
            }]
          }
        }]
      }
    }
  },
  {
    "fullUrl" : "http://hl7.eu/fhir/ig/gravitate-health/Ingredient/ingredientFERRICOXIDERED",
    "resource" : {
      "resourceType" : "Ingredient",
      "id" : "ingredientFERRICOXIDERED",
      "meta" : {
        "profile" : ["http://hl7.org/fhir/uv/emedicinal-product-info/StructureDefinition/Ingredient-uv-epi"]
      },
      "text" : {
        "status" : "generated",
        "div" : "<div xmlns=\"http://www.w3.org/1999/xhtml\"><p><b>Generated Narrative: Ingredient</b><a name=\"ingredientFERRICOXIDERED\"> </a></p><div style=\"display: inline-block; background-color: #d9e0e7; padding: 6px; margin: 4px; border: 1px solid #8da1b4; border-radius: 5px; line-height: 60%\"><p style=\"margin-bottom: 0px\">Resource Ingredient &quot;ingredientFERRICOXIDERED&quot; </p><p style=\"margin-bottom: 0px\">Profile: <a href=\"https://build.fhir.org/ig/HL7/emedicinal-product-info//StructureDefinition-Ingredient-uv-epi.html\">Ingredient (ePI)</a></p></div><p><b>identifier</b>: id:\u00a01K09F3G675\u00a0(use:\u00a0OFFICIAL)</p><p><b>status</b>: active</p><p><b>for</b>: </p><ul><li><a href=\"#MedicinalProductDefinition_mp1mg\">See above (MedicinalProductDefinition/mp1mg)</a></li><li><a href=\"#MedicinalProductDefinition_mp025mg\">See above (MedicinalProductDefinition/mp025mg)</a></li></ul><p><b>role</b>: Excipient <span style=\"background: LightGoldenRodYellow; margin: 4px; border: 1px solid khaki\"> (rmswi#100000072082)</span></p><p><b>allergenicIndicator</b>: false</p><h3>Manufacturers</h3><table class=\"grid\"><tr><td style=\"display: none\">-</td><td><b>Manufacturer</b></td></tr><tr><td style=\"display: none\">*</td><td><a href=\"#Organization_orgpfizerukltd\">See above (Organization/orgpfizerukltd)</a></td></tr></table><blockquote><p><b>substance</b></p><h3>Codes</h3><table class=\"grid\"><tr><td style=\"display: none\">-</td><td><b>Concept</b></td></tr><tr><td style=\"display: none\">*</td><td>FERRIC OXIDE RED <span style=\"background: LightGoldenRodYellow; margin: 4px; border: 1px solid khaki\"> (beta#1K09F3G675)</span></td></tr></table><h3>Strengths</h3><table class=\"grid\"><tr><td style=\"display: none\">-</td><td><b>Basis</b></td></tr><tr><td style=\"display: none\">*</td><td>active ingredient - basis of strength <span style=\"background: LightGoldenRodYellow; margin: 4px; border: 1px solid khaki\"> (<a href=\"http://terminology.hl7.org/5.3.0/CodeSystem-v3-RoleClass.html\">RoleClass</a>#ACTIB)</span></td></tr></table></blockquote></div>"
      },
      "identifier" : {
        "use" : "official",
        "system" : "https://gsrs.ncats.nih.gov/ginas/app/beta",
        "value" : "1K09F3G675"
      },
      "status" : "active",
      "for" : [{
        "reference" : "MedicinalProductDefinition/mp1mg"
      },
      {
        "reference" : "MedicinalProductDefinition/mp025mg"
      }],
      "role" : {
        "coding" : [{
          "system" : "https://spor.ema.europa.eu/rmswi",
          "code" : "100000072082",
          "display" : "Excipient"
        }]
      },
      "allergenicIndicator" : false,
      "manufacturer" : [{
        "manufacturer" : {
          "reference" : "Organization/orgpfizerukltd"
        }
      }],
      "substance" : {
        "code" : {
          "concept" : {
            "coding" : [{
              "system" : "https://gsrs.ncats.nih.gov/ginas/app/beta",
              "code" : "1K09F3G675",
              "display" : "FERRIC OXIDE RED"
            }]
          }
        },
        "strength" : [{
          "basis" : {
            "coding" : [{
              "system" : "http://terminology.hl7.org/CodeSystem/v3-RoleClass",
              "code" : "ACTIB",
              "display" : "active ingredient - basis of strength"
            }]
          }
        }]
      }
    }
  },
  {
    "fullUrl" : "http://hl7.eu/fhir/ig/gravitate-health/Ingredient/ingredientSHELLAC",
    "resource" : {
      "resourceType" : "Ingredient",
      "id" : "ingredientSHELLAC",
      "meta" : {
        "profile" : ["http://hl7.org/fhir/uv/emedicinal-product-info/StructureDefinition/Ingredient-uv-epi"]
      },
      "text" : {
        "status" : "generated",
        "div" : "<div xmlns=\"http://www.w3.org/1999/xhtml\"><p><b>Generated Narrative: Ingredient</b><a name=\"ingredientSHELLAC\"> </a></p><div style=\"display: inline-block; background-color: #d9e0e7; padding: 6px; margin: 4px; border: 1px solid #8da1b4; border-radius: 5px; line-height: 60%\"><p style=\"margin-bottom: 0px\">Resource Ingredient &quot;ingredientSHELLAC&quot; </p><p style=\"margin-bottom: 0px\">Profile: <a href=\"https://build.fhir.org/ig/HL7/emedicinal-product-info//StructureDefinition-Ingredient-uv-epi.html\">Ingredient (ePI)</a></p></div><p><b>identifier</b>: id:\u00a046N107B71O\u00a0(use:\u00a0OFFICIAL)</p><p><b>status</b>: active</p><p><b>for</b>: </p><ul><li><a href=\"#MedicinalProductDefinition_mp1mg\">See above (MedicinalProductDefinition/mp1mg)</a></li><li><a href=\"#MedicinalProductDefinition_mp025mg\">See above (MedicinalProductDefinition/mp025mg)</a></li></ul><p><b>role</b>: Excipient <span style=\"background: LightGoldenRodYellow; margin: 4px; border: 1px solid khaki\"> (rmswi#100000072082)</span></p><p><b>allergenicIndicator</b>: false</p><h3>Manufacturers</h3><table class=\"grid\"><tr><td style=\"display: none\">-</td><td><b>Manufacturer</b></td></tr><tr><td style=\"display: none\">*</td><td><a href=\"#Organization_orgpfizerukltd\">See above (Organization/orgpfizerukltd)</a></td></tr></table><blockquote><p><b>substance</b></p><h3>Codes</h3><table class=\"grid\"><tr><td style=\"display: none\">-</td><td><b>Concept</b></td></tr><tr><td style=\"display: none\">*</td><td>SHELLAC <span style=\"background: LightGoldenRodYellow; margin: 4px; border: 1px solid khaki\"> (beta#46N107B71O)</span></td></tr></table><h3>Strengths</h3><table class=\"grid\"><tr><td style=\"display: none\">-</td><td><b>Basis</b></td></tr><tr><td style=\"display: none\">*</td><td>active ingredient - basis of strength <span style=\"background: LightGoldenRodYellow; margin: 4px; border: 1px solid khaki\"> (<a href=\"http://terminology.hl7.org/5.3.0/CodeSystem-v3-RoleClass.html\">RoleClass</a>#ACTIB)</span></td></tr></table></blockquote></div>"
      },
      "identifier" : {
        "use" : "official",
        "system" : "https://gsrs.ncats.nih.gov/ginas/app/beta",
        "value" : "46N107B71O"
      },
      "status" : "active",
      "for" : [{
        "reference" : "MedicinalProductDefinition/mp1mg"
      },
      {
        "reference" : "MedicinalProductDefinition/mp025mg"
      }],
      "role" : {
        "coding" : [{
          "system" : "https://spor.ema.europa.eu/rmswi",
          "code" : "100000072082",
          "display" : "Excipient"
        }]
      },
      "allergenicIndicator" : false,
      "manufacturer" : [{
        "manufacturer" : {
          "reference" : "Organization/orgpfizerukltd"
        }
      }],
      "substance" : {
        "code" : {
          "concept" : {
            "coding" : [{
              "system" : "https://gsrs.ncats.nih.gov/ginas/app/beta",
              "code" : "46N107B71O",
              "display" : "SHELLAC"
            }]
          }
        },
        "strength" : [{
          "basis" : {
            "coding" : [{
              "system" : "http://terminology.hl7.org/CodeSystem/v3-RoleClass",
              "code" : "ACTIB",
              "display" : "active ingredient - basis of strength"
            }]
          }
        }]
      }
    }
  },
  {
    "fullUrl" : "http://hl7.eu/fhir/ig/gravitate-health/Ingredient/ingredientPROPYLENEGLYCOL",
    "resource" : {
      "resourceType" : "Ingredient",
      "id" : "ingredientPROPYLENEGLYCOL",
      "meta" : {
        "profile" : ["http://hl7.org/fhir/uv/emedicinal-product-info/StructureDefinition/Ingredient-uv-epi"]
      },
      "text" : {
        "status" : "generated",
        "div" : "<div xmlns=\"http://www.w3.org/1999/xhtml\"><p><b>Generated Narrative: Ingredient</b><a name=\"ingredientPROPYLENEGLYCOL\"> </a></p><div style=\"display: inline-block; background-color: #d9e0e7; padding: 6px; margin: 4px; border: 1px solid #8da1b4; border-radius: 5px; line-height: 60%\"><p style=\"margin-bottom: 0px\">Resource Ingredient &quot;ingredientPROPYLENEGLYCOL&quot; </p><p style=\"margin-bottom: 0px\">Profile: <a href=\"https://build.fhir.org/ig/HL7/emedicinal-product-info//StructureDefinition-Ingredient-uv-epi.html\">Ingredient (ePI)</a></p></div><p><b>identifier</b>: id:\u00a06DC9Q167V3\u00a0(use:\u00a0OFFICIAL)</p><p><b>status</b>: active</p><p><b>for</b>: </p><ul><li><a href=\"#MedicinalProductDefinition_mp1mg\">See above (MedicinalProductDefinition/mp1mg)</a></li><li><a href=\"#MedicinalProductDefinition_mp025mg\">See above (MedicinalProductDefinition/mp025mg)</a></li></ul><p><b>role</b>: Excipient <span style=\"background: LightGoldenRodYellow; margin: 4px; border: 1px solid khaki\"> (rmswi#100000072082)</span></p><p><b>allergenicIndicator</b>: false</p><h3>Manufacturers</h3><table class=\"grid\"><tr><td style=\"display: none\">-</td><td><b>Manufacturer</b></td></tr><tr><td style=\"display: none\">*</td><td><a href=\"#Organization_orgpfizerukltd\">See above (Organization/orgpfizerukltd)</a></td></tr></table><blockquote><p><b>substance</b></p><h3>Codes</h3><table class=\"grid\"><tr><td style=\"display: none\">-</td><td><b>Concept</b></td></tr><tr><td style=\"display: none\">*</td><td>PROPYLENE GLYCOL <span style=\"background: LightGoldenRodYellow; margin: 4px; border: 1px solid khaki\"> (beta#6DC9Q167V3)</span></td></tr></table><h3>Strengths</h3><table class=\"grid\"><tr><td style=\"display: none\">-</td><td><b>Basis</b></td></tr><tr><td style=\"display: none\">*</td><td>active ingredient - basis of strength <span style=\"background: LightGoldenRodYellow; margin: 4px; border: 1px solid khaki\"> (<a href=\"http://terminology.hl7.org/5.3.0/CodeSystem-v3-RoleClass.html\">RoleClass</a>#ACTIB)</span></td></tr></table></blockquote></div>"
      },
      "identifier" : {
        "use" : "official",
        "system" : "https://gsrs.ncats.nih.gov/ginas/app/beta",
        "value" : "6DC9Q167V3"
      },
      "status" : "active",
      "for" : [{
        "reference" : "MedicinalProductDefinition/mp1mg"
      },
      {
        "reference" : "MedicinalProductDefinition/mp025mg"
      }],
      "role" : {
        "coding" : [{
          "system" : "https://spor.ema.europa.eu/rmswi",
          "code" : "100000072082",
          "display" : "Excipient"
        }]
      },
      "allergenicIndicator" : false,
      "manufacturer" : [{
        "manufacturer" : {
          "reference" : "Organization/orgpfizerukltd"
        }
      }],
      "substance" : {
        "code" : {
          "concept" : {
            "coding" : [{
              "system" : "https://gsrs.ncats.nih.gov/ginas/app/beta",
              "code" : "6DC9Q167V3",
              "display" : "PROPYLENE GLYCOL"
            }]
          }
        },
        "strength" : [{
          "basis" : {
            "coding" : [{
              "system" : "http://terminology.hl7.org/CodeSystem/v3-RoleClass",
              "code" : "ACTIB",
              "display" : "active ingredient - basis of strength"
            }]
          }
        }]
      }
    }
  },
  {
    "fullUrl" : "http://hl7.eu/fhir/ig/gravitate-health/Ingredient/ingredientAMMONIUMHYDROXIDE",
    "resource" : {
      "resourceType" : "Ingredient",
      "id" : "ingredientAMMONIUMHYDROXIDE",
      "meta" : {
        "profile" : ["http://hl7.org/fhir/uv/emedicinal-product-info/StructureDefinition/Ingredient-uv-epi"]
      },
      "text" : {
        "status" : "generated",
        "div" : "<div xmlns=\"http://www.w3.org/1999/xhtml\"><p><b>Generated Narrative: Ingredient</b><a name=\"ingredientAMMONIUMHYDROXIDE\"> </a></p><div style=\"display: inline-block; background-color: #d9e0e7; padding: 6px; margin: 4px; border: 1px solid #8da1b4; border-radius: 5px; line-height: 60%\"><p style=\"margin-bottom: 0px\">Resource Ingredient &quot;ingredientAMMONIUMHYDROXIDE&quot; </p><p style=\"margin-bottom: 0px\">Profile: <a href=\"https://build.fhir.org/ig/HL7/emedicinal-product-info//StructureDefinition-Ingredient-uv-epi.html\">Ingredient (ePI)</a></p></div><p><b>identifier</b>: id:\u00a05138Q19F1X\u00a0(use:\u00a0OFFICIAL)</p><p><b>status</b>: active</p><p><b>for</b>: </p><ul><li><a href=\"#MedicinalProductDefinition_mp1mg\">See above (MedicinalProductDefinition/mp1mg)</a></li><li><a href=\"#MedicinalProductDefinition_mp025mg\">See above (MedicinalProductDefinition/mp025mg)</a></li></ul><p><b>role</b>: Excipient <span style=\"background: LightGoldenRodYellow; margin: 4px; border: 1px solid khaki\"> (rmswi#100000072082)</span></p><p><b>allergenicIndicator</b>: false</p><h3>Manufacturers</h3><table class=\"grid\"><tr><td style=\"display: none\">-</td><td><b>Manufacturer</b></td></tr><tr><td style=\"display: none\">*</td><td><a href=\"#Organization_orgpfizerukltd\">See above (Organization/orgpfizerukltd)</a></td></tr></table><blockquote><p><b>substance</b></p><h3>Codes</h3><table class=\"grid\"><tr><td style=\"display: none\">-</td><td><b>Concept</b></td></tr><tr><td style=\"display: none\">*</td><td>AMMONIUM HYDROXIDE <span style=\"background: LightGoldenRodYellow; margin: 4px; border: 1px solid khaki\"> (beta#5138Q19F1X)</span></td></tr></table><h3>Strengths</h3><table class=\"grid\"><tr><td style=\"display: none\">-</td><td><b>Basis</b></td></tr><tr><td style=\"display: none\">*</td><td>active ingredient - basis of strength <span style=\"background: LightGoldenRodYellow; margin: 4px; border: 1px solid khaki\"> (<a href=\"http://terminology.hl7.org/5.3.0/CodeSystem-v3-RoleClass.html\">RoleClass</a>#ACTIB)</span></td></tr></table></blockquote></div>"
      },
      "identifier" : {
        "use" : "official",
        "system" : "https://gsrs.ncats.nih.gov/ginas/app/beta",
        "value" : "5138Q19F1X"
      },
      "status" : "active",
      "for" : [{
        "reference" : "MedicinalProductDefinition/mp1mg"
      },
      {
        "reference" : "MedicinalProductDefinition/mp025mg"
      }],
      "role" : {
        "coding" : [{
          "system" : "https://spor.ema.europa.eu/rmswi",
          "code" : "100000072082",
          "display" : "Excipient"
        }]
      },
      "allergenicIndicator" : false,
      "manufacturer" : [{
        "manufacturer" : {
          "reference" : "Organization/orgpfizerukltd"
        }
      }],
      "substance" : {
        "code" : {
          "concept" : {
            "coding" : [{
              "system" : "https://gsrs.ncats.nih.gov/ginas/app/beta",
              "code" : "5138Q19F1X",
              "display" : "AMMONIUM HYDROXIDE"
            }]
          }
        },
        "strength" : [{
          "basis" : {
            "coding" : [{
              "system" : "http://terminology.hl7.org/CodeSystem/v3-RoleClass",
              "code" : "ACTIB",
              "display" : "active ingredient - basis of strength"
            }]
          }
        }]
      }
    }
  },
  {
    "fullUrl" : "http://hl7.eu/fhir/ig/gravitate-health/Ingredient/ingredientFERROSOFERRICOXIDE",
    "resource" : {
      "resourceType" : "Ingredient",
      "id" : "ingredientFERROSOFERRICOXIDE",
      "meta" : {
        "profile" : ["http://hl7.org/fhir/uv/emedicinal-product-info/StructureDefinition/Ingredient-uv-epi"]
      },
      "text" : {
        "status" : "generated",
        "div" : "<div xmlns=\"http://www.w3.org/1999/xhtml\"><p><b>Generated Narrative: Ingredient</b><a name=\"ingredientFERROSOFERRICOXIDE\"> </a></p><div style=\"display: inline-block; background-color: #d9e0e7; padding: 6px; margin: 4px; border: 1px solid #8da1b4; border-radius: 5px; line-height: 60%\"><p style=\"margin-bottom: 0px\">Resource Ingredient &quot;ingredientFERROSOFERRICOXIDE&quot; </p><p style=\"margin-bottom: 0px\">Profile: <a href=\"https://build.fhir.org/ig/HL7/emedicinal-product-info//StructureDefinition-Ingredient-uv-epi.html\">Ingredient (ePI)</a></p></div><p><b>identifier</b>: id:\u00a0XM0M87F357\u00a0(use:\u00a0OFFICIAL)</p><p><b>status</b>: active</p><p><b>for</b>: </p><ul><li><a href=\"#MedicinalProductDefinition_mp1mg\">See above (MedicinalProductDefinition/mp1mg)</a></li><li><a href=\"#MedicinalProductDefinition_mp025mg\">See above (MedicinalProductDefinition/mp025mg)</a></li></ul><p><b>role</b>: Excipient <span style=\"background: LightGoldenRodYellow; margin: 4px; border: 1px solid khaki\"> (rmswi#100000072082)</span></p><p><b>allergenicIndicator</b>: false</p><h3>Manufacturers</h3><table class=\"grid\"><tr><td style=\"display: none\">-</td><td><b>Manufacturer</b></td></tr><tr><td style=\"display: none\">*</td><td><a href=\"#Organization_orgpfizerukltd\">See above (Organization/orgpfizerukltd)</a></td></tr></table><blockquote><p><b>substance</b></p><h3>Codes</h3><table class=\"grid\"><tr><td style=\"display: none\">-</td><td><b>Concept</b></td></tr><tr><td style=\"display: none\">*</td><td>FERROSOFERRIC OXIDE <span style=\"background: LightGoldenRodYellow; margin: 4px; border: 1px solid khaki\"> (beta#XM0M87F357)</span></td></tr></table><h3>Strengths</h3><table class=\"grid\"><tr><td style=\"display: none\">-</td><td><b>Basis</b></td></tr><tr><td style=\"display: none\">*</td><td>active ingredient - basis of strength <span style=\"background: LightGoldenRodYellow; margin: 4px; border: 1px solid khaki\"> (<a href=\"http://terminology.hl7.org/5.3.0/CodeSystem-v3-RoleClass.html\">RoleClass</a>#ACTIB)</span></td></tr></table></blockquote></div>"
      },
      "identifier" : {
        "use" : "official",
        "system" : "https://gsrs.ncats.nih.gov/ginas/app/beta",
        "value" : "XM0M87F357"
      },
      "status" : "active",
      "for" : [{
        "reference" : "MedicinalProductDefinition/mp1mg"
      },
      {
        "reference" : "MedicinalProductDefinition/mp025mg"
      }],
      "role" : {
        "coding" : [{
          "system" : "https://spor.ema.europa.eu/rmswi",
          "code" : "100000072082",
          "display" : "Excipient"
        }]
      },
      "allergenicIndicator" : false,
      "manufacturer" : [{
        "manufacturer" : {
          "reference" : "Organization/orgpfizerukltd"
        }
      }],
      "substance" : {
        "code" : {
          "concept" : {
            "coding" : [{
              "system" : "https://gsrs.ncats.nih.gov/ginas/app/beta",
              "code" : "XM0M87F357",
              "display" : "FERROSOFERRIC OXIDE"
            }]
          }
        },
        "strength" : [{
          "basis" : {
            "coding" : [{
              "system" : "http://terminology.hl7.org/CodeSystem/v3-RoleClass",
              "code" : "ACTIB",
              "display" : "active ingredient - basis of strength"
            }]
          }
        }]
      }
    }
  },
  {
    "fullUrl" : "http://hl7.eu/fhir/ig/gravitate-health/Ingredient/ingredientPotassiumhydroxide",
    "resource" : {
      "resourceType" : "Ingredient",
      "id" : "ingredientPotassiumhydroxide",
      "meta" : {
        "profile" : ["http://hl7.org/fhir/uv/emedicinal-product-info/StructureDefinition/Ingredient-uv-epi"]
      },
      "text" : {
        "status" : "generated",
        "div" : "<div xmlns=\"http://www.w3.org/1999/xhtml\"><p><b>Generated Narrative: Ingredient</b><a name=\"ingredientPotassiumhydroxide\"> </a></p><div style=\"display: inline-block; background-color: #d9e0e7; padding: 6px; margin: 4px; border: 1px solid #8da1b4; border-radius: 5px; line-height: 60%\"><p style=\"margin-bottom: 0px\">Resource Ingredient &quot;ingredientPotassiumhydroxide&quot; </p><p style=\"margin-bottom: 0px\">Profile: <a href=\"https://build.fhir.org/ig/HL7/emedicinal-product-info//StructureDefinition-Ingredient-uv-epi.html\">Ingredient (ePI)</a></p></div><p><b>identifier</b>: id:\u00a0WZH3C48M4T\u00a0(use:\u00a0OFFICIAL)</p><p><b>status</b>: active</p><p><b>for</b>: </p><ul><li><a href=\"#MedicinalProductDefinition_mp1mg\">See above (MedicinalProductDefinition/mp1mg)</a></li><li><a href=\"#MedicinalProductDefinition_mp025mg\">See above (MedicinalProductDefinition/mp025mg)</a></li></ul><p><b>role</b>: Excipient <span style=\"background: LightGoldenRodYellow; margin: 4px; border: 1px solid khaki\"> (rmswi#100000072082)</span></p><p><b>allergenicIndicator</b>: false</p><h3>Manufacturers</h3><table class=\"grid\"><tr><td style=\"display: none\">-</td><td><b>Manufacturer</b></td></tr><tr><td style=\"display: none\">*</td><td><a href=\"#Organization_orgpfizerukltd\">See above (Organization/orgpfizerukltd)</a></td></tr></table><blockquote><p><b>substance</b></p><h3>Codes</h3><table class=\"grid\"><tr><td style=\"display: none\">-</td><td><b>Concept</b></td></tr><tr><td style=\"display: none\">*</td><td>Potassium hydroxide <span style=\"background: LightGoldenRodYellow; margin: 4px; border: 1px solid khaki\"> (beta#WZH3C48M4T)</span></td></tr></table><h3>Strengths</h3><table class=\"grid\"><tr><td style=\"display: none\">-</td><td><b>Basis</b></td></tr><tr><td style=\"display: none\">*</td><td>active ingredient - basis of strength <span style=\"background: LightGoldenRodYellow; margin: 4px; border: 1px solid khaki\"> (<a href=\"http://terminology.hl7.org/5.3.0/CodeSystem-v3-RoleClass.html\">RoleClass</a>#ACTIB)</span></td></tr></table></blockquote></div>"
      },
      "identifier" : {
        "use" : "official",
        "system" : "https://gsrs.ncats.nih.gov/ginas/app/beta",
        "value" : "WZH3C48M4T"
      },
      "status" : "active",
      "for" : [{
        "reference" : "MedicinalProductDefinition/mp1mg"
      },
      {
        "reference" : "MedicinalProductDefinition/mp025mg"
      }],
      "role" : {
        "coding" : [{
          "system" : "https://spor.ema.europa.eu/rmswi",
          "code" : "100000072082",
          "display" : "Excipient"
        }]
      },
      "allergenicIndicator" : false,
      "manufacturer" : [{
        "manufacturer" : {
          "reference" : "Organization/orgpfizerukltd"
        }
      }],
      "substance" : {
        "code" : {
          "concept" : {
            "coding" : [{
              "system" : "https://gsrs.ncats.nih.gov/ginas/app/beta",
              "code" : "WZH3C48M4T",
              "display" : "Potassium hydroxide"
            }]
          }
        },
        "strength" : [{
          "basis" : {
            "coding" : [{
              "system" : "http://terminology.hl7.org/CodeSystem/v3-RoleClass",
              "code" : "ACTIB",
              "display" : "active ingredient - basis of strength"
            }]
          }
        }]
      }
    }
  },
  {
    "fullUrl" : "http://hl7.eu/fhir/ig/gravitate-health/SubstanceDefinition/substancetalazoparib",
    "resource" : {
      "resourceType" : "SubstanceDefinition",
      "id" : "substancetalazoparib",
      "text" : {
        "status" : "generated",
        "div" : "<div xmlns=\"http://www.w3.org/1999/xhtml\"><p><b>Generated Narrative: SubstanceDefinition</b><a name=\"substancetalazoparib\"> </a></p><div style=\"display: inline-block; background-color: #d9e0e7; padding: 6px; margin: 4px; border: 1px solid #8da1b4; border-radius: 5px; line-height: 60%\"><p style=\"margin-bottom: 0px\">Resource SubstanceDefinition &quot;substancetalazoparib&quot; </p></div><p><b>identifier</b>: id:\u00a09QHX048FRV\u00a0(use:\u00a0OFFICIAL)</p><p><b>version</b>: 1</p><p><b>status</b>: Validated (UNII) <span style=\"background: LightGoldenRodYellow; margin: 4px; border: 1px solid khaki\"> (#1)</span></p><p><b>manufacturer</b>: <a href=\"#Organization_orgpfizerukltd\">See above (Organization/orgpfizerukltd)</a></p><h3>MolecularWeights</h3><table class=\"grid\"><tr><td style=\"display: none\">-</td><td><b>Type</b></td><td><b>Amount</b></td></tr><tr><td style=\"display: none\">*</td><td>exact <span style=\"background: LightGoldenRodYellow; margin: 4px; border: 1px solid khaki\"> ()</span></td><td>380.35</td></tr></table><h3>Structures</h3><table class=\"grid\"><tr><td style=\"display: none\">-</td><td><b>MolecularFormula</b></td></tr><tr><td style=\"display: none\">*</td><td>C19H14F2N6O</td></tr></table><h3>Names</h3><table class=\"grid\"><tr><td style=\"display: none\">-</td><td><b>Name</b></td><td><b>Type</b></td></tr><tr><td style=\"display: none\">*</td><td>(8S,9R)-5-fluoro-8-(4-fluorophenyl)-9-(1-methyl-1H-1,2,4-triazol-5-yl)-2,7,8,9-tetrahydro-3H-pyrido[4,3,2-de]phthalazin-3-one</td><td>Chemical Name <span style=\"background: LightGoldenRodYellow; margin: 4px; border: 1px solid khaki\"> (#x)</span></td></tr></table></div>"
      },
      "identifier" : [{
        "use" : "official",
        "system" : "https://gsrs.ncats.nih.gov/ginas/app/beta/",
        "value" : "9QHX048FRV"
      }],
      "version" : "1",
      "status" : {
        "coding" : [{
          "system" : "https://gsrs.ncats.nih.gov/ginas/app/beta/",
          "code" : "1",
          "display" : "Validated (UNII)"
        }]
      },
      "manufacturer" : [{
        "reference" : "Organization/orgpfizerukltd"
      }],
      "molecularWeight" : [{
        "type" : {
          "text" : "exact"
        },
        "amount" : {
          "value" : 380.35
        }
      }],
      "structure" : {
        "molecularFormula" : "C19H14F2N6O"
      },
      "name" : [{
        "name" : "(8S,9R)-5-fluoro-8-(4-fluorophenyl)-9-(1-methyl-1H-1,2,4-triazol-5-yl)-2,7,8,9-tetrahydro-3H-pyrido[4,3,2-de]phthalazin-3-one",
        "type" : {
          "coding" : [{
            "system" : "https://gsrs.ncats.nih.gov/ginas/app/beta/",
            "code" : "x",
            "display" : "Chemical Name"
          }]
        }
      }]
    }
  },
  {
    "fullUrl" : "http://hl7.eu/fhir/ig/gravitate-health/ManufacturedItemDefinition/mid025mg",
    "resource" : {
      "resourceType" : "ManufacturedItemDefinition",
      "id" : "mid025mg",
      "meta" : {
        "profile" : ["http://hl7.org/fhir/uv/emedicinal-product-info/StructureDefinition/ManufacturedItemDefinition-uv-epi"]
      },
      "text" : {
        "status" : "generated",
        "div" : "<div xmlns=\"http://www.w3.org/1999/xhtml\"><p><b>Generated Narrative: ManufacturedItemDefinition</b><a name=\"mid025mg\"> </a></p><div style=\"display: inline-block; background-color: #d9e0e7; padding: 6px; margin: 4px; border: 1px solid #8da1b4; border-radius: 5px; line-height: 60%\"><p style=\"margin-bottom: 0px\">Resource ManufacturedItemDefinition &quot;mid025mg&quot; </p><p style=\"margin-bottom: 0px\">Profile: <a href=\"https://build.fhir.org/ig/HL7/emedicinal-product-info//StructureDefinition-ManufacturedItemDefinition-uv-epi.html\">ManufacturedItemDefinition (ePI)</a></p></div><p><b>identifier</b>: id:\u00a0placeholder\u00a0(use:\u00a0OFFICIAL)</p><p><b>status</b>: active</p><p><b>manufacturedDoseForm</b>: Capsule, hard <span style=\"background: LightGoldenRodYellow; margin: 4px; border: 1px solid khaki\"> (#100000073375)</span></p><p><b>unitOfPresentation</b>: Capsule <span style=\"background: LightGoldenRodYellow; margin: 4px; border: 1px solid khaki\"> (rmswi#200000002113)</span></p><p><b>manufacturer</b>: <a href=\"#Organization_orgexcellagmbh\">See above (Organization/orgexcellagmbh)</a></p></div>"
      },
      "identifier" : [{
        "use" : "official",
        "system" : "https://www.mhra.gov.uk/",
        "value" : "placeholder"
      }],
      "status" : "active",
      "manufacturedDoseForm" : {
        "coding" : [{
          "system" : "https://spor.ema.europa.eu/rmswi/",
          "code" : "100000073375",
          "display" : "Capsule, hard"
        }]
      },
      "unitOfPresentation" : {
        "coding" : [{
          "system" : "https://spor.ema.europa.eu/rmswi",
          "code" : "200000002113",
          "display" : "Capsule"
        }]
      },
      "manufacturer" : [{
        "reference" : "Organization/orgexcellagmbh"
      }]
    }
  },
  {
    "fullUrl" : "http://hl7.eu/fhir/ig/gravitate-health/ManufacturedItemDefinition/mid1mg",
    "resource" : {
      "resourceType" : "ManufacturedItemDefinition",
      "id" : "mid1mg",
      "meta" : {
        "profile" : ["http://hl7.org/fhir/uv/emedicinal-product-info/StructureDefinition/ManufacturedItemDefinition-uv-epi"]
      },
      "text" : {
        "status" : "generated",
        "div" : "<div xmlns=\"http://www.w3.org/1999/xhtml\"><p><b>Generated Narrative: ManufacturedItemDefinition</b><a name=\"mid1mg\"> </a></p><div style=\"display: inline-block; background-color: #d9e0e7; padding: 6px; margin: 4px; border: 1px solid #8da1b4; border-radius: 5px; line-height: 60%\"><p style=\"margin-bottom: 0px\">Resource ManufacturedItemDefinition &quot;mid1mg&quot; </p><p style=\"margin-bottom: 0px\">Profile: <a href=\"https://build.fhir.org/ig/HL7/emedicinal-product-info//StructureDefinition-ManufacturedItemDefinition-uv-epi.html\">ManufacturedItemDefinition (ePI)</a></p></div><p><b>identifier</b>: id:\u00a0placeholder\u00a0(use:\u00a0OFFICIAL)</p><p><b>status</b>: active</p><p><b>manufacturedDoseForm</b>: Capsule, hard <span style=\"background: LightGoldenRodYellow; margin: 4px; border: 1px solid khaki\"> (#100000073375)</span></p><p><b>unitOfPresentation</b>: Capsule <span style=\"background: LightGoldenRodYellow; margin: 4px; border: 1px solid khaki\"> (rmswi#200000002113)</span></p><p><b>manufacturer</b>: <a href=\"#Organization_orgexcellagmbh\">See above (Organization/orgexcellagmbh)</a></p></div>"
      },
      "identifier" : [{
        "use" : "official",
        "system" : "https://www.mhra.gov.uk/",
        "value" : "placeholder"
      }],
      "status" : "active",
      "manufacturedDoseForm" : {
        "coding" : [{
          "system" : "https://spor.ema.europa.eu/rmswi/",
          "code" : "100000073375",
          "display" : "Capsule, hard"
        }]
      },
      "unitOfPresentation" : {
        "coding" : [{
          "system" : "https://spor.ema.europa.eu/rmswi",
          "code" : "200000002113",
          "display" : "Capsule"
        }]
      },
      "manufacturer" : [{
        "reference" : "Organization/orgexcellagmbh"
      }]
    }
  },
  {
    "fullUrl" : "http://hl7.eu/fhir/ig/gravitate-health/AdministrableProductDefinition/ap025mg",
    "resource" : {
      "resourceType" : "AdministrableProductDefinition",
      "id" : "ap025mg",
      "meta" : {
        "profile" : ["http://hl7.org/fhir/uv/emedicinal-product-info/StructureDefinition/AdministrableProductDefinition-uv-epi"]
      },
      "text" : {
        "status" : "generated",
        "div" : "<div xmlns=\"http://www.w3.org/1999/xhtml\"><p><b>Generated Narrative: AdministrableProductDefinition</b><a name=\"ap025mg\"> </a></p><div style=\"display: inline-block; background-color: #d9e0e7; padding: 6px; margin: 4px; border: 1px solid #8da1b4; border-radius: 5px; line-height: 60%\"><p style=\"margin-bottom: 0px\">Resource AdministrableProductDefinition &quot;ap025mg&quot; </p><p style=\"margin-bottom: 0px\">Profile: <a href=\"https://build.fhir.org/ig/HL7/emedicinal-product-info//StructureDefinition-AdministrableProductDefinition-uv-epi.html\">AdministrableProductDefinition (ePI)</a></p></div><p><b>identifier</b>: id:\u00a0identifier</p><p><b>status</b>: active</p><p><b>formOf</b>: <a href=\"#MedicinalProductDefinition_mp025mg\">See above (MedicinalProductDefinition/mp025mg)</a></p><p><b>administrableDoseForm</b>: Capsule, hard <span style=\"background: LightGoldenRodYellow; margin: 4px; border: 1px solid khaki\"> (rmswi#100000073375)</span></p><p><b>unitOfPresentation</b>: Capsule <span style=\"background: LightGoldenRodYellow; margin: 4px; border: 1px solid khaki\"> (rmswi#200000002113)</span></p><p><b>producedFrom</b>: <a href=\"#ManufacturedItemDefinition_mid025mg\">See above (ManufacturedItemDefinition/mid025mg)</a></p><blockquote><p><b>routeOfAdministration</b></p><p><b>code</b>: Oral use <span style=\"background: LightGoldenRodYellow; margin: 4px; border: 1px solid khaki\"> (rmswi#100000073619)</span></p><h3>TargetSpecies</h3><table class=\"grid\"><tr><td style=\"display: none\">-</td><td><b>Code</b></td></tr><tr><td style=\"display: none\">*</td><td>Human <span style=\"background: LightGoldenRodYellow; margin: 4px; border: 1px solid khaki\"> (rmswi#100000109093)</span></td></tr></table></blockquote></div>"
      },
      "identifier" : [{
        "system" : "https://www.who-umc.org/phpid",
        "value" : "identifier"
      }],
      "status" : "active",
      "formOf" : [{
        "reference" : "MedicinalProductDefinition/mp025mg"
      }],
      "administrableDoseForm" : {
        "coding" : [{
          "system" : "https://spor.ema.europa.eu/rmswi",
          "code" : "100000073375",
          "display" : "Capsule, hard"
        }]
      },
      "unitOfPresentation" : {
        "coding" : [{
          "system" : "https://spor.ema.europa.eu/rmswi",
          "code" : "200000002113",
          "display" : "Capsule"
        }]
      },
      "producedFrom" : [{
        "reference" : "ManufacturedItemDefinition/mid025mg"
      }],
      "routeOfAdministration" : [{
        "code" : {
          "coding" : [{
            "system" : "https://spor.ema.europa.eu/rmswi",
            "code" : "100000073619",
            "display" : "Oral use"
          }]
        },
        "targetSpecies" : [{
          "code" : {
            "coding" : [{
              "system" : "https://spor.ema.europa.eu/rmswi",
              "code" : "100000109093",
              "display" : "Human"
            }]
          }
        }]
      }]
    }
  },
  {
    "fullUrl" : "http://hl7.eu/fhir/ig/gravitate-health/AdministrableProductDefinition/ap1mg",
    "resource" : {
      "resourceType" : "AdministrableProductDefinition",
      "id" : "ap1mg",
      "meta" : {
        "profile" : ["http://hl7.org/fhir/uv/emedicinal-product-info/StructureDefinition/AdministrableProductDefinition-uv-epi"]
      },
      "text" : {
        "status" : "generated",
        "div" : "<div xmlns=\"http://www.w3.org/1999/xhtml\"><p><b>Generated Narrative: AdministrableProductDefinition</b><a name=\"ap1mg\"> </a></p><div style=\"display: inline-block; background-color: #d9e0e7; padding: 6px; margin: 4px; border: 1px solid #8da1b4; border-radius: 5px; line-height: 60%\"><p style=\"margin-bottom: 0px\">Resource AdministrableProductDefinition &quot;ap1mg&quot; </p><p style=\"margin-bottom: 0px\">Profile: <a href=\"https://build.fhir.org/ig/HL7/emedicinal-product-info//StructureDefinition-AdministrableProductDefinition-uv-epi.html\">AdministrableProductDefinition (ePI)</a></p></div><p><b>identifier</b>: id:\u00a0identifier</p><p><b>status</b>: active</p><p><b>formOf</b>: <a href=\"#MedicinalProductDefinition_mp1mg\">See above (MedicinalProductDefinition/mp1mg)</a></p><p><b>administrableDoseForm</b>: Capsule, hard <span style=\"background: LightGoldenRodYellow; margin: 4px; border: 1px solid khaki\"> (rmswi#100000073375)</span></p><p><b>unitOfPresentation</b>: Capsule <span style=\"background: LightGoldenRodYellow; margin: 4px; border: 1px solid khaki\"> (rmswi#200000002113)</span></p><p><b>producedFrom</b>: <a href=\"#ManufacturedItemDefinition_mid1mg\">See above (ManufacturedItemDefinition/mid1mg)</a></p><blockquote><p><b>routeOfAdministration</b></p><p><b>code</b>: Oral use <span style=\"background: LightGoldenRodYellow; margin: 4px; border: 1px solid khaki\"> (rmswi#100000073619)</span></p><h3>TargetSpecies</h3><table class=\"grid\"><tr><td style=\"display: none\">-</td><td><b>Code</b></td></tr><tr><td style=\"display: none\">*</td><td>Human <span style=\"background: LightGoldenRodYellow; margin: 4px; border: 1px solid khaki\"> (rmswi#100000109093)</span></td></tr></table></blockquote></div>"
      },
      "identifier" : [{
        "system" : "https://www.who-umc.org/phpid",
        "value" : "identifier"
      }],
      "status" : "active",
      "formOf" : [{
        "reference" : "MedicinalProductDefinition/mp1mg"
      }],
      "administrableDoseForm" : {
        "coding" : [{
          "system" : "https://spor.ema.europa.eu/rmswi",
          "code" : "100000073375",
          "display" : "Capsule, hard"
        }]
      },
      "unitOfPresentation" : {
        "coding" : [{
          "system" : "https://spor.ema.europa.eu/rmswi",
          "code" : "200000002113",
          "display" : "Capsule"
        }]
      },
      "producedFrom" : [{
        "reference" : "ManufacturedItemDefinition/mid1mg"
      }],
      "routeOfAdministration" : [{
        "code" : {
          "coding" : [{
            "system" : "https://spor.ema.europa.eu/rmswi",
            "code" : "100000073619",
            "display" : "Oral use"
          }]
        },
        "targetSpecies" : [{
          "code" : {
            "coding" : [{
              "system" : "https://spor.ema.europa.eu/rmswi",
              "code" : "100000109093",
              "display" : "Human"
            }]
          }
        }]
      }]
    }
  },
  {
    "fullUrl" : "http://hl7.eu/fhir/ig/gravitate-health/RegulatedAuthorization/authorization1mg",
    "resource" : {
      "resourceType" : "RegulatedAuthorization",
      "id" : "authorization1mg",
      "meta" : {
        "profile" : ["http://hl7.org/fhir/uv/emedicinal-product-info/StructureDefinition/RegulatedAuthorization-uv-epi"]
      },
      "text" : {
        "status" : "generated",
        "div" : "<div xmlns=\"http://www.w3.org/1999/xhtml\"><p><b>Generated Narrative: RegulatedAuthorization</b><a name=\"authorization1mg\"> </a></p><div style=\"display: inline-block; background-color: #d9e0e7; padding: 6px; margin: 4px; border: 1px solid #8da1b4; border-radius: 5px; line-height: 60%\"><p style=\"margin-bottom: 0px\">Resource RegulatedAuthorization &quot;authorization1mg&quot; </p><p style=\"margin-bottom: 0px\">Profile: <a href=\"https://build.fhir.org/ig/HL7/emedicinal-product-info//StructureDefinition-RegulatedAuthorization-uv-epi.html\">RegulatedAuthorization (ePI)</a></p></div><p><b>identifier</b>: id:\u00a0placeholder\u00a0(use:\u00a0OFFICIAL)</p><p><b>subject</b>: <a href=\"#MedicinalProductDefinition_mp025mg\">See above (MedicinalProductDefinition/mp025mg)</a></p><p><b>type</b>: Marketing Authorisation <span style=\"background: LightGoldenRodYellow; margin: 4px; border: 1px solid khaki\"> (rmswi#220000000061)</span></p><p><b>region</b>: United Kingdom <span style=\"background: LightGoldenRodYellow; margin: 4px; border: 1px solid khaki\"> (<a href=\"http://terminology.hl7.org/5.3.0/CodeSystem-ISO3166Part1.html\">ISO 3166-1 Codes for the representation of names of countries and their subdivisions — Part 1: Country code</a>#GBR)</span></p><p><b>status</b>: Active <span style=\"background: LightGoldenRodYellow; margin: 4px; border: 1px solid khaki\"> (<a href=\"http://hl7.org/fhir/R5/codesystem-publication-status.html\">PublicationStatus</a>#active)</span></p><p><b>statusDate</b>: 2022-03-04 00:00:00+0000</p><p><b>holder</b>: <a href=\"#Organization_orgpfizerukltd\">See above (Organization/orgpfizerukltd)</a></p></div>"
      },
      "identifier" : [{
        "use" : "official",
        "system" : "https://spor.ema.europa.eu/pmswi",
        "value" : "placeholder"
      }],
      "subject" : [{
        "reference" : "MedicinalProductDefinition/mp025mg"
      }],
      "type" : {
        "coding" : [{
          "system" : "https://spor.ema.europa.eu/rmswi",
          "code" : "220000000061",
          "display" : "Marketing Authorisation"
        }]
      },
      "region" : [{
        "coding" : [{
          "system" : "urn:iso:std:iso:3166",
          "code" : "GBR",
          "display" : "United Kingdom"
        }]
      }],
      "status" : {
        "coding" : [{
          "system" : "http://hl7.org/fhir/publication-status",
          "code" : "active",
          "display" : "Active"
        }]
      },
      "statusDate" : "2022-03-04T00:00:00Z",
      "holder" : {
        "reference" : "Organization/orgpfizerukltd"
      }
    }
  },
  {
    "fullUrl" : "http://hl7.eu/fhir/ig/gravitate-health/RegulatedAuthorization/authorization025mg",
    "resource" : {
      "resourceType" : "RegulatedAuthorization",
      "id" : "authorization025mg",
      "meta" : {
        "profile" : ["http://hl7.org/fhir/uv/emedicinal-product-info/StructureDefinition/RegulatedAuthorization-uv-epi"]
      },
      "text" : {
        "status" : "generated",
        "div" : "<div xmlns=\"http://www.w3.org/1999/xhtml\"><p><b>Generated Narrative: RegulatedAuthorization</b><a name=\"authorization025mg\"> </a></p><div style=\"display: inline-block; background-color: #d9e0e7; padding: 6px; margin: 4px; border: 1px solid #8da1b4; border-radius: 5px; line-height: 60%\"><p style=\"margin-bottom: 0px\">Resource RegulatedAuthorization &quot;authorization025mg&quot; </p><p style=\"margin-bottom: 0px\">Profile: <a href=\"https://build.fhir.org/ig/HL7/emedicinal-product-info//StructureDefinition-RegulatedAuthorization-uv-epi.html\">RegulatedAuthorization (ePI)</a></p></div><p><b>identifier</b>: id:\u00a0placeholder\u00a0(use:\u00a0OFFICIAL)</p><p><b>subject</b>: <a href=\"#MedicinalProductDefinition_mp025mg\">See above (MedicinalProductDefinition/mp025mg)</a></p><p><b>type</b>: Marketing Authorisation <span style=\"background: LightGoldenRodYellow; margin: 4px; border: 1px solid khaki\"> (rmswi#220000000061)</span></p><p><b>region</b>: United Kingdom <span style=\"background: LightGoldenRodYellow; margin: 4px; border: 1px solid khaki\"> (<a href=\"http://terminology.hl7.org/5.3.0/CodeSystem-ISO3166Part1.html\">ISO 3166-1 Codes for the representation of names of countries and their subdivisions — Part 1: Country code</a>#GBR)</span></p><p><b>status</b>: Active <span style=\"background: LightGoldenRodYellow; margin: 4px; border: 1px solid khaki\"> (<a href=\"http://hl7.org/fhir/R5/codesystem-publication-status.html\">PublicationStatus</a>#active)</span></p><p><b>statusDate</b>: 2022-03-04 00:00:00+0000</p><p><b>holder</b>: <a href=\"#Organization_orgpfizerukltd\">See above (Organization/orgpfizerukltd)</a></p></div>"
      },
      "identifier" : [{
        "use" : "official",
        "system" : "https://spor.ema.europa.eu/pmswi",
        "value" : "placeholder"
      }],
      "subject" : [{
        "reference" : "MedicinalProductDefinition/mp025mg"
      }],
      "type" : {
        "coding" : [{
          "system" : "https://spor.ema.europa.eu/rmswi",
          "code" : "220000000061",
          "display" : "Marketing Authorisation"
        }]
      },
      "region" : [{
        "coding" : [{
          "system" : "urn:iso:std:iso:3166",
          "code" : "GBR",
          "display" : "United Kingdom"
        }]
      }],
      "status" : {
        "coding" : [{
          "system" : "http://hl7.org/fhir/publication-status",
          "code" : "active",
          "display" : "Active"
        }]
      },
      "statusDate" : "2022-03-04T00:00:00Z",
      "holder" : {
        "reference" : "Organization/orgpfizerukltd"
      }
    }
  },
  {
    "fullUrl" : "http://hl7.eu/fhir/ig/gravitate-health/Organization/orgpfizerukltd",
    "resource" : {
      "resourceType" : "Organization",
      "id" : "orgpfizerukltd",
      "meta" : {
        "profile" : ["http://hl7.org/fhir/uv/emedicinal-product-info/StructureDefinition/Organization-uv-epi"]
      },
      "text" : {
        "status" : "generated",
        "div" : "<div xmlns=\"http://www.w3.org/1999/xhtml\"><p><b>Generated Narrative: Organization</b><a name=\"orgpfizerukltd\"> </a></p><div style=\"display: inline-block; background-color: #d9e0e7; padding: 6px; margin: 4px; border: 1px solid #8da1b4; border-radius: 5px; line-height: 60%\"><p style=\"margin-bottom: 0px\">Resource Organization &quot;orgpfizerukltd&quot; </p><p style=\"margin-bottom: 0px\">Profile: <a href=\"https://build.fhir.org/ig/HL7/emedicinal-product-info//StructureDefinition-Organization-uv-epi.html\">Organization (ePI)</a></p></div><p><b>identifier</b>: id:\u00a0ORG-100000789\u00a0(use:\u00a0OFFICIAL)</p><p><b>active</b>: true</p><p><b>type</b>: Marketing authorisation holder <span style=\"background: LightGoldenRodYellow; margin: 4px; border: 1px solid khaki\"> (rmswi#220000000034)</span></p><p><b>name</b>: Pfizer Limited</p><h3>Contacts</h3><table class=\"grid\"><tr><td style=\"display: none\">-</td><td><b>Address</b></td></tr><tr><td style=\"display: none\">*</td><td>Pfizer Limited Ramsgate Road, Sandwich, Kent, CT13 9NJ, United Kingdom(WORK)</td></tr></table></div>"
      },
      "identifier" : [{
        "use" : "official",
        "system" : "https://spor.ema.europa.eu/omswi",
        "value" : "ORG-100000789"
      }],
      "active" : true,
      "type" : [{
        "coding" : [{
          "system" : "https://spor.ema.europa.eu/rmswi",
          "code" : "220000000034",
          "display" : "Marketing authorisation holder"
        }],
        "text" : "Marketing authorisation holder"
      }],
      "name" : "Pfizer Limited",
      "contact" : [{
        "address" : {
          "use" : "work",
          "type" : "physical",
          "text" : "Pfizer Limited Ramsgate Road, Sandwich, Kent, CT13 9NJ, United Kingdom",
          "line" : ["Ramsgate Road"],
          "city" : "Sandwich",
          "country" : "UK"
        }
      }]
    }
  },
  {
    "fullUrl" : "http://hl7.eu/fhir/ig/gravitate-health/Organization/orgexcellagmbh",
    "resource" : {
      "resourceType" : "Organization",
      "id" : "orgexcellagmbh",
      "meta" : {
        "profile" : ["http://hl7.org/fhir/uv/emedicinal-product-info/StructureDefinition/Organization-uv-epi"]
      },
      "text" : {
        "status" : "generated",
        "div" : "<div xmlns=\"http://www.w3.org/1999/xhtml\"><p><b>Generated Narrative: Organization</b><a name=\"orgexcellagmbh\"> </a></p><div style=\"display: inline-block; background-color: #d9e0e7; padding: 6px; margin: 4px; border: 1px solid #8da1b4; border-radius: 5px; line-height: 60%\"><p style=\"margin-bottom: 0px\">Resource Organization &quot;orgexcellagmbh&quot; </p><p style=\"margin-bottom: 0px\">Profile: <a href=\"https://build.fhir.org/ig/HL7/emedicinal-product-info//StructureDefinition-Organization-uv-epi.html\">Organization (ePI)</a></p></div><p><b>identifier</b>: id:\u00a0ORG-100012030\u00a0(use:\u00a0OFFICIAL)</p><p><b>active</b>: true</p><p><b>type</b>: Manufacturer <span style=\"background: LightGoldenRodYellow; margin: 4px; border: 1px solid khaki\"> (rmswi#220000000033)</span></p><p><b>name</b>: Excella GmbH &amp; Co. KG</p><h3>Contacts</h3><table class=\"grid\"><tr><td style=\"display: none\">-</td><td><b>Address</b></td></tr><tr><td style=\"display: none\">*</td><td>Excella GmbH &amp; Co. KG, Nürnberger Strasse 12, 90537 Feucht, Germany(WORK)</td></tr></table></div>"
      },
      "identifier" : [{
        "use" : "official",
        "system" : "https://spor.ema.europa.eu/omswi",
        "value" : "ORG-100012030"
      }],
      "active" : true,
      "type" : [{
        "coding" : [{
          "system" : "https://spor.ema.europa.eu/rmswi",
          "code" : "220000000033",
          "display" : "Manufacturer"
        }],
        "text" : "Manufacturer"
      }],
      "name" : "Excella GmbH & Co. KG",
      "contact" : [{
        "address" : {
          "use" : "work",
          "type" : "physical",
          "text" : "Excella GmbH & Co. KG, Nürnberger Strasse 12, 90537 Feucht, Germany",
          "line" : ["Nürnberger Strasse 12"],
          "city" : "Feucht",
          "country" : "DE"
        }
      }]
    }
  },
  {
    "fullUrl" : "http://hl7.eu/fhir/ig/gravitate-health/PackagedProductDefinition/talzenna025mgblister30",
    "resource" : {
      "resourceType" : "PackagedProductDefinition",
      "id" : "talzenna025mgblister30",
      "meta" : {
        "profile" : ["http://hl7.org/fhir/uv/emedicinal-product-info/StructureDefinition/PackagedProductDefinition-uv-epi"]
      },
      "text" : {
        "status" : "generated",
        "div" : "<div xmlns=\"http://www.w3.org/1999/xhtml\"><p><b>Generated Narrative: PackagedProductDefinition</b><a name=\"talzenna025mgblister30\"> </a></p><div style=\"display: inline-block; background-color: #d9e0e7; padding: 6px; margin: 4px; border: 1px solid #8da1b4; border-radius: 5px; line-height: 60%\"><p style=\"margin-bottom: 0px\">Resource PackagedProductDefinition &quot;talzenna025mgblister30&quot; </p><p style=\"margin-bottom: 0px\">Profile: <a href=\"https://build.fhir.org/ig/HL7/emedicinal-product-info//StructureDefinition-PackagedProductDefinition-uv-epi.html\">PackagedProductDefinition (ePI)</a></p></div><p><b>identifier</b>: id:\u00a0placeholder\u00a0(use:\u00a0OFFICIAL)</p><p><b>name</b>: Talzenna 0.25 mg perforated unit dose blister pack - 30 capsules</p><p><b>type</b>: Chemical Medicinal Product <span style=\"background: LightGoldenRodYellow; margin: 4px; border: 1px solid khaki\"> (rmswi#100000155527)</span></p><p><b>packageFor</b>: <a href=\"#MedicinalProductDefinition_mp025mg\">See above (MedicinalProductDefinition/mp025mg)</a></p><p><b>status</b>: Active <span style=\"background: LightGoldenRodYellow; margin: 4px; border: 1px solid khaki\"> (<a href=\"http://hl7.org/fhir/R5/codesystem-publication-status.html\">PublicationStatus</a>#active)</span></p><p><b>statusDate</b>: 2022-03-04 00:00:00+0000</p><p><b>containedItemQuantity</b>: 0.25 mg<span style=\"background: LightGoldenRodYellow\"> (Details: UCUM code mg = 'mg')</span></p><p><b>manufacturer</b>: <a href=\"#Organization_orgpfizerukltd\">See above (Organization/orgpfizerukltd)</a></p><h3>Packagings</h3><table class=\"grid\"><tr><td style=\"display: none\">-</td><td><b>Identifier</b></td><td><b>Type</b></td><td><b>Quantity</b></td><td><b>Material</b></td></tr><tr><td style=\"display: none\">*</td><td>id:\u00a0002</td><td>Blister <span style=\"background: LightGoldenRodYellow; margin: 4px; border: 1px solid khaki\"> (rmswi#100000073496)</span></td><td>30</td><td>PolyVinyl Chloride <span style=\"background: LightGoldenRodYellow; margin: 4px; border: 1px solid khaki\"> (rmswi#200000003222)</span></td></tr></table></div>"
      },
      "identifier" : [{
        "use" : "official",
        "system" : "https://spor.ema.europa.eu/pmswi",
        "value" : "placeholder"
      }],
      "name" : "Talzenna 0.25 mg perforated unit dose blister pack - 30 capsules",
      "type" : {
        "coding" : [{
          "system" : "https://spor.ema.europa.eu/rmswi",
          "code" : "100000155527",
          "display" : "Chemical Medicinal Product"
        }]
      },
      "packageFor" : [{
        "reference" : "MedicinalProductDefinition/mp025mg"
      }],
      "status" : {
        "coding" : [{
          "system" : "http://hl7.org/fhir/publication-status",
          "code" : "active",
          "display" : "Active"
        }]
      },
      "statusDate" : "2022-03-04T00:00:00Z",
      "containedItemQuantity" : [{
        "value" : 0.25,
        "system" : "http://unitsofmeasure.org",
        "code" : "mg"
      }],
      "manufacturer" : [{
        "reference" : "Organization/orgpfizerukltd"
      }],
      "packaging" : {
        "identifier" : [{
          "system" : "https://spor.ema.europa.eu/pmswi",
          "value" : "002"
        }],
        "type" : {
          "coding" : [{
            "system" : "https://spor.ema.europa.eu/rmswi",
            "code" : "100000073496",
            "display" : "Blister"
          }]
        },
        "quantity" : 30,
        "material" : [{
          "coding" : [{
            "system" : "https://spor.ema.europa.eu/rmswi",
            "code" : "200000003222",
            "display" : "PolyVinyl Chloride"
          }]
        }]
      }
    }
  },
  {
    "fullUrl" : "http://hl7.eu/fhir/ig/gravitate-health/PackagedProductDefinition/talzenna025mgblister60",
    "resource" : {
      "resourceType" : "PackagedProductDefinition",
      "id" : "talzenna025mgblister60",
      "meta" : {
        "profile" : ["http://hl7.org/fhir/uv/emedicinal-product-info/StructureDefinition/PackagedProductDefinition-uv-epi"]
      },
      "text" : {
        "status" : "generated",
        "div" : "<div xmlns=\"http://www.w3.org/1999/xhtml\"><p><b>Generated Narrative: PackagedProductDefinition</b><a name=\"talzenna025mgblister60\"> </a></p><div style=\"display: inline-block; background-color: #d9e0e7; padding: 6px; margin: 4px; border: 1px solid #8da1b4; border-radius: 5px; line-height: 60%\"><p style=\"margin-bottom: 0px\">Resource PackagedProductDefinition &quot;talzenna025mgblister60&quot; </p><p style=\"margin-bottom: 0px\">Profile: <a href=\"https://build.fhir.org/ig/HL7/emedicinal-product-info//StructureDefinition-PackagedProductDefinition-uv-epi.html\">PackagedProductDefinition (ePI)</a></p></div><p><b>identifier</b>: id:\u00a0placeholder\u00a0(use:\u00a0OFFICIAL)</p><p><b>name</b>: Talzenna 0.25 mg perforated unit dose blister pack - 60 capsules</p><p><b>type</b>: Chemical Medicinal Product <span style=\"background: LightGoldenRodYellow; margin: 4px; border: 1px solid khaki\"> (rmswi#100000155527)</span></p><p><b>packageFor</b>: <a href=\"#MedicinalProductDefinition_mp025mg\">See above (MedicinalProductDefinition/mp025mg)</a></p><p><b>status</b>: Active <span style=\"background: LightGoldenRodYellow; margin: 4px; border: 1px solid khaki\"> (<a href=\"http://hl7.org/fhir/R5/codesystem-publication-status.html\">PublicationStatus</a>#active)</span></p><p><b>statusDate</b>: 2022-03-04 00:00:00+0000</p><p><b>containedItemQuantity</b>: 0.25 mg<span style=\"background: LightGoldenRodYellow\"> (Details: UCUM code mg = 'mg')</span></p><p><b>manufacturer</b>: <a href=\"#Organization_orgpfizerukltd\">See above (Organization/orgpfizerukltd)</a></p><h3>Packagings</h3><table class=\"grid\"><tr><td style=\"display: none\">-</td><td><b>Identifier</b></td><td><b>Type</b></td><td><b>Quantity</b></td><td><b>Material</b></td></tr><tr><td style=\"display: none\">*</td><td>id:\u00a0003</td><td>Blister <span style=\"background: LightGoldenRodYellow; margin: 4px; border: 1px solid khaki\"> (rmswi#100000073496)</span></td><td>60</td><td>PolyVinyl Chloride <span style=\"background: LightGoldenRodYellow; margin: 4px; border: 1px solid khaki\"> (rmswi#200000003222)</span></td></tr></table></div>"
      },
      "identifier" : [{
        "use" : "official",
        "system" : "https://spor.ema.europa.eu/pmswi",
        "value" : "placeholder"
      }],
      "name" : "Talzenna 0.25 mg perforated unit dose blister pack - 60 capsules",
      "type" : {
        "coding" : [{
          "system" : "https://spor.ema.europa.eu/rmswi",
          "code" : "100000155527",
          "display" : "Chemical Medicinal Product"
        }]
      },
      "packageFor" : [{
        "reference" : "MedicinalProductDefinition/mp025mg"
      }],
      "status" : {
        "coding" : [{
          "system" : "http://hl7.org/fhir/publication-status",
          "code" : "active",
          "display" : "Active"
        }]
      },
      "statusDate" : "2022-03-04T00:00:00Z",
      "containedItemQuantity" : [{
        "value" : 0.25,
        "system" : "http://unitsofmeasure.org",
        "code" : "mg"
      }],
      "manufacturer" : [{
        "reference" : "Organization/orgpfizerukltd"
      }],
      "packaging" : {
        "identifier" : [{
          "system" : "https://spor.ema.europa.eu/pmswi",
          "value" : "003"
        }],
        "type" : {
          "coding" : [{
            "system" : "https://spor.ema.europa.eu/rmswi",
            "code" : "100000073496",
            "display" : "Blister"
          }]
        },
        "quantity" : 60,
        "material" : [{
          "coding" : [{
            "system" : "https://spor.ema.europa.eu/rmswi",
            "code" : "200000003222",
            "display" : "PolyVinyl Chloride"
          }]
        }]
      }
    }
  },
  {
    "fullUrl" : "http://hl7.eu/fhir/ig/gravitate-health/PackagedProductDefinition/talzenna025mgblister90",
    "resource" : {
      "resourceType" : "PackagedProductDefinition",
      "id" : "talzenna025mgblister90",
      "meta" : {
        "profile" : ["http://hl7.org/fhir/uv/emedicinal-product-info/StructureDefinition/PackagedProductDefinition-uv-epi"]
      },
      "text" : {
        "status" : "generated",
        "div" : "<div xmlns=\"http://www.w3.org/1999/xhtml\"><p><b>Generated Narrative: PackagedProductDefinition</b><a name=\"talzenna025mgblister90\"> </a></p><div style=\"display: inline-block; background-color: #d9e0e7; padding: 6px; margin: 4px; border: 1px solid #8da1b4; border-radius: 5px; line-height: 60%\"><p style=\"margin-bottom: 0px\">Resource PackagedProductDefinition &quot;talzenna025mgblister90&quot; </p><p style=\"margin-bottom: 0px\">Profile: <a href=\"https://build.fhir.org/ig/HL7/emedicinal-product-info//StructureDefinition-PackagedProductDefinition-uv-epi.html\">PackagedProductDefinition (ePI)</a></p></div><p><b>identifier</b>: id:\u00a0004\u00a0(use:\u00a0OFFICIAL)</p><p><b>name</b>: Talzenna 0.25 mg perforated unit dose blister pack - 90 capsules</p><p><b>type</b>: Chemical Medicinal Product <span style=\"background: LightGoldenRodYellow; margin: 4px; border: 1px solid khaki\"> (rmswi#100000155527)</span></p><p><b>packageFor</b>: <a href=\"#MedicinalProductDefinition_mp025mg\">See above (MedicinalProductDefinition/mp025mg)</a></p><p><b>status</b>: Active <span style=\"background: LightGoldenRodYellow; margin: 4px; border: 1px solid khaki\"> (<a href=\"http://hl7.org/fhir/R5/codesystem-publication-status.html\">PublicationStatus</a>#active)</span></p><p><b>statusDate</b>: 2022-03-04 00:00:00+0000</p><p><b>containedItemQuantity</b>: 0.25 mg<span style=\"background: LightGoldenRodYellow\"> (Details: UCUM code mg = 'mg')</span></p><p><b>manufacturer</b>: <a href=\"#Organization_orgpfizerukltd\">See above (Organization/orgpfizerukltd)</a></p><h3>Packagings</h3><table class=\"grid\"><tr><td style=\"display: none\">-</td><td><b>Identifier</b></td><td><b>Type</b></td><td><b>Quantity</b></td><td><b>Material</b></td></tr><tr><td style=\"display: none\">*</td><td>id:\u00a0placeholder</td><td>Blister <span style=\"background: LightGoldenRodYellow; margin: 4px; border: 1px solid khaki\"> (rmswi#100000073496)</span></td><td>90</td><td>PolyVinyl Chloride <span style=\"background: LightGoldenRodYellow; margin: 4px; border: 1px solid khaki\"> (rmswi#200000003222)</span></td></tr></table></div>"
      },
      "identifier" : [{
        "use" : "official",
        "system" : "https://spor.ema.europa.eu/pmswi",
        "value" : "004"
      }],
      "name" : "Talzenna 0.25 mg perforated unit dose blister pack - 90 capsules",
      "type" : {
        "coding" : [{
          "system" : "https://spor.ema.europa.eu/rmswi",
          "code" : "100000155527",
          "display" : "Chemical Medicinal Product"
        }]
      },
      "packageFor" : [{
        "reference" : "MedicinalProductDefinition/mp025mg"
      }],
      "status" : {
        "coding" : [{
          "system" : "http://hl7.org/fhir/publication-status",
          "code" : "active",
          "display" : "Active"
        }]
      },
      "statusDate" : "2022-03-04T00:00:00Z",
      "containedItemQuantity" : [{
        "value" : 0.25,
        "system" : "http://unitsofmeasure.org",
        "code" : "mg"
      }],
      "manufacturer" : [{
        "reference" : "Organization/orgpfizerukltd"
      }],
      "packaging" : {
        "identifier" : [{
          "system" : "https://spor.ema.europa.eu/pmswi",
          "value" : "placeholder"
        }],
        "type" : {
          "coding" : [{
            "system" : "https://spor.ema.europa.eu/rmswi",
            "code" : "100000073496",
            "display" : "Blister"
          }]
        },
        "quantity" : 90,
        "material" : [{
          "coding" : [{
            "system" : "https://spor.ema.europa.eu/rmswi",
            "code" : "200000003222",
            "display" : "PolyVinyl Chloride"
          }]
        }]
      }
    }
  },
  {
    "fullUrl" : "http://hl7.eu/fhir/ig/gravitate-health/PackagedProductDefinition/talzenna025mgbottle30",
    "resource" : {
      "resourceType" : "PackagedProductDefinition",
      "id" : "talzenna025mgbottle30",
      "meta" : {
        "profile" : ["http://hl7.org/fhir/uv/emedicinal-product-info/StructureDefinition/PackagedProductDefinition-uv-epi"]
      },
      "text" : {
        "status" : "generated",
        "div" : "<div xmlns=\"http://www.w3.org/1999/xhtml\"><p><b>Generated Narrative: PackagedProductDefinition</b><a name=\"talzenna025mgbottle30\"> </a></p><div style=\"display: inline-block; background-color: #d9e0e7; padding: 6px; margin: 4px; border: 1px solid #8da1b4; border-radius: 5px; line-height: 60%\"><p style=\"margin-bottom: 0px\">Resource PackagedProductDefinition &quot;talzenna025mgbottle30&quot; </p><p style=\"margin-bottom: 0px\">Profile: <a href=\"https://build.fhir.org/ig/HL7/emedicinal-product-info//StructureDefinition-PackagedProductDefinition-uv-epi.html\">PackagedProductDefinition (ePI)</a></p></div><p><b>identifier</b>: id:\u00a0placeholder\u00a0(use:\u00a0OFFICIAL)</p><p><b>name</b>: Talzenna 0.25 mg plastic bottle - 30 hard capsules</p><p><b>type</b>: Chemical Medicinal Product <span style=\"background: LightGoldenRodYellow; margin: 4px; border: 1px solid khaki\"> (rmswi#100000155527)</span></p><p><b>packageFor</b>: <a href=\"#MedicinalProductDefinition_mp025mg\">See above (MedicinalProductDefinition/mp025mg)</a></p><p><b>status</b>: Active <span style=\"background: LightGoldenRodYellow; margin: 4px; border: 1px solid khaki\"> (<a href=\"http://hl7.org/fhir/R5/codesystem-publication-status.html\">PublicationStatus</a>#active)</span></p><p><b>statusDate</b>: 2022-03-04 00:00:00+0000</p><p><b>containedItemQuantity</b>: 0.25 mg<span style=\"background: LightGoldenRodYellow\"> (Details: UCUM code mg = 'mg')</span></p><p><b>manufacturer</b>: <a href=\"#Organization_orgpfizerukltd\">See above (Organization/orgpfizerukltd)</a></p><h3>Packagings</h3><table class=\"grid\"><tr><td style=\"display: none\">-</td><td><b>Identifier</b></td><td><b>Type</b></td><td><b>Quantity</b></td><td><b>Material</b></td></tr><tr><td style=\"display: none\">*</td><td>id:\u00a0001</td><td>Bottle <span style=\"background: LightGoldenRodYellow; margin: 4px; border: 1px solid khaki\"> (rmswi#100000073497)</span></td><td>30</td><td>High Density PolyEthylene <span style=\"background: LightGoldenRodYellow; margin: 4px; border: 1px solid khaki\"> (rmswi#200000003215)</span></td></tr></table></div>"
      },
      "identifier" : [{
        "use" : "official",
        "system" : "https://spor.ema.europa.eu/pmswi",
        "value" : "placeholder"
      }],
      "name" : "Talzenna 0.25 mg plastic bottle - 30 hard capsules",
      "type" : {
        "coding" : [{
          "system" : "https://spor.ema.europa.eu/rmswi",
          "code" : "100000155527",
          "display" : "Chemical Medicinal Product"
        }]
      },
      "packageFor" : [{
        "reference" : "MedicinalProductDefinition/mp025mg"
      }],
      "status" : {
        "coding" : [{
          "system" : "http://hl7.org/fhir/publication-status",
          "code" : "active",
          "display" : "Active"
        }]
      },
      "statusDate" : "2022-03-04T00:00:00Z",
      "containedItemQuantity" : [{
        "value" : 0.25,
        "system" : "http://unitsofmeasure.org",
        "code" : "mg"
      }],
      "manufacturer" : [{
        "reference" : "Organization/orgpfizerukltd"
      }],
      "packaging" : {
        "identifier" : [{
          "system" : "https://spor.ema.europa.eu/pmswi",
          "value" : "001"
        }],
        "type" : {
          "coding" : [{
            "system" : "https://spor.ema.europa.eu/rmswi",
            "code" : "100000073497",
            "display" : "Bottle"
          }]
        },
        "quantity" : 30,
        "material" : [{
          "coding" : [{
            "system" : "https://spor.ema.europa.eu/rmswi",
            "code" : "200000003215",
            "display" : "High Density PolyEthylene"
          }]
        }]
      }
    }
  },
  {
    "fullUrl" : "http://hl7.eu/fhir/ig/gravitate-health/PackagedProductDefinition/talzenna1mgblister30",
    "resource" : {
      "resourceType" : "PackagedProductDefinition",
      "id" : "talzenna1mgblister30",
      "meta" : {
        "profile" : ["http://hl7.org/fhir/uv/emedicinal-product-info/StructureDefinition/PackagedProductDefinition-uv-epi"]
      },
      "text" : {
        "status" : "generated",
        "div" : "<div xmlns=\"http://www.w3.org/1999/xhtml\"><p><b>Generated Narrative: PackagedProductDefinition</b><a name=\"talzenna1mgblister30\"> </a></p><div style=\"display: inline-block; background-color: #d9e0e7; padding: 6px; margin: 4px; border: 1px solid #8da1b4; border-radius: 5px; line-height: 60%\"><p style=\"margin-bottom: 0px\">Resource PackagedProductDefinition &quot;talzenna1mgblister30&quot; </p><p style=\"margin-bottom: 0px\">Profile: <a href=\"https://build.fhir.org/ig/HL7/emedicinal-product-info//StructureDefinition-PackagedProductDefinition-uv-epi.html\">PackagedProductDefinition (ePI)</a></p></div><p><b>identifier</b>: id:\u00a0006\u00a0(use:\u00a0OFFICIAL)</p><p><b>name</b>: Talzenna 1 mg perforated unit dose blister pack - 30 hard capsules</p><p><b>type</b>: Chemical Medicinal Product <span style=\"background: LightGoldenRodYellow; margin: 4px; border: 1px solid khaki\"> (rmswi#100000155527)</span></p><p><b>packageFor</b>: <a href=\"#MedicinalProductDefinition_mp1mg\">See above (MedicinalProductDefinition/mp1mg)</a></p><p><b>status</b>: Active <span style=\"background: LightGoldenRodYellow; margin: 4px; border: 1px solid khaki\"> (<a href=\"http://hl7.org/fhir/R5/codesystem-publication-status.html\">PublicationStatus</a>#active)</span></p><p><b>statusDate</b>: 2022-03-04 00:00:00+0000</p><p><b>containedItemQuantity</b>: 1 mg<span style=\"background: LightGoldenRodYellow\"> (Details: UCUM code mg = 'mg')</span></p><p><b>manufacturer</b>: <a href=\"#Organization_orgpfizerukltd\">See above (Organization/orgpfizerukltd)</a></p><h3>Packagings</h3><table class=\"grid\"><tr><td style=\"display: none\">-</td><td><b>Identifier</b></td><td><b>Type</b></td><td><b>Quantity</b></td><td><b>Material</b></td></tr><tr><td style=\"display: none\">*</td><td>id:\u00a0006</td><td>Blister <span style=\"background: LightGoldenRodYellow; margin: 4px; border: 1px solid khaki\"> (rmswi#100000073496)</span></td><td>30</td><td>PolyVinyl Chloride <span style=\"background: LightGoldenRodYellow; margin: 4px; border: 1px solid khaki\"> (rmswi#200000003222)</span></td></tr></table></div>"
      },
      "identifier" : [{
        "use" : "official",
        "system" : "https://spor.ema.europa.eu/pmswi",
        "value" : "006"
      }],
      "name" : "Talzenna 1 mg perforated unit dose blister pack - 30 hard capsules",
      "type" : {
        "coding" : [{
          "system" : "https://spor.ema.europa.eu/rmswi",
          "code" : "100000155527",
          "display" : "Chemical Medicinal Product"
        }]
      },
      "packageFor" : [{
        "reference" : "MedicinalProductDefinition/mp1mg"
      }],
      "status" : {
        "coding" : [{
          "system" : "http://hl7.org/fhir/publication-status",
          "code" : "active",
          "display" : "Active"
        }]
      },
      "statusDate" : "2022-03-04T00:00:00Z",
      "containedItemQuantity" : [{
        "value" : 1,
        "system" : "http://unitsofmeasure.org",
        "code" : "mg"
      }],
      "manufacturer" : [{
        "reference" : "Organization/orgpfizerukltd"
      }],
      "packaging" : {
        "identifier" : [{
          "system" : "https://spor.ema.europa.eu/pmswi",
          "value" : "006"
        }],
        "type" : {
          "coding" : [{
            "system" : "https://spor.ema.europa.eu/rmswi",
            "code" : "100000073496",
            "display" : "Blister"
          }]
        },
        "quantity" : 30,
        "material" : [{
          "coding" : [{
            "system" : "https://spor.ema.europa.eu/rmswi",
            "code" : "200000003222",
            "display" : "PolyVinyl Chloride"
          }]
        }]
      }
    }
  },
  {
    "fullUrl" : "http://hl7.eu/fhir/ig/gravitate-health/PackagedProductDefinition/talzenna1mgbottle30",
    "resource" : {
      "resourceType" : "PackagedProductDefinition",
      "id" : "talzenna1mgbottle30",
      "meta" : {
        "profile" : ["http://hl7.org/fhir/uv/emedicinal-product-info/StructureDefinition/PackagedProductDefinition-uv-epi"]
      },
      "text" : {
        "status" : "generated",
        "div" : "<div xmlns=\"http://www.w3.org/1999/xhtml\"><p><b>Generated Narrative: PackagedProductDefinition</b><a name=\"talzenna1mgbottle30\"> </a></p><div style=\"display: inline-block; background-color: #d9e0e7; padding: 6px; margin: 4px; border: 1px solid #8da1b4; border-radius: 5px; line-height: 60%\"><p style=\"margin-bottom: 0px\">Resource PackagedProductDefinition &quot;talzenna1mgbottle30&quot; </p><p style=\"margin-bottom: 0px\">Profile: <a href=\"https://build.fhir.org/ig/HL7/emedicinal-product-info//StructureDefinition-PackagedProductDefinition-uv-epi.html\">PackagedProductDefinition (ePI)</a></p></div><p><b>identifier</b>: id:\u00a0placeholder\u00a0(use:\u00a0OFFICIAL)</p><p><b>name</b>: Talzenna 1 mg plastic bottle - 30 hard capsules</p><p><b>type</b>: Chemical Medicinal Product <span style=\"background: LightGoldenRodYellow; margin: 4px; border: 1px solid khaki\"> (rmswi#100000155527)</span></p><p><b>packageFor</b>: <a href=\"#MedicinalProductDefinition_mp1mg\">See above (MedicinalProductDefinition/mp1mg)</a></p><p><b>status</b>: Active <span style=\"background: LightGoldenRodYellow; margin: 4px; border: 1px solid khaki\"> (<a href=\"http://hl7.org/fhir/R5/codesystem-publication-status.html\">PublicationStatus</a>#active)</span></p><p><b>statusDate</b>: 2022-03-04 00:00:00+0000</p><p><b>containedItemQuantity</b>: 1 mg<span style=\"background: LightGoldenRodYellow\"> (Details: UCUM code mg = 'mg')</span></p><p><b>manufacturer</b>: <a href=\"#Organization_orgpfizerukltd\">See above (Organization/orgpfizerukltd)</a></p><h3>Packagings</h3><table class=\"grid\"><tr><td style=\"display: none\">-</td><td><b>Identifier</b></td><td><b>Type</b></td><td><b>Quantity</b></td><td><b>Material</b></td></tr><tr><td style=\"display: none\">*</td><td>id:\u00a0005</td><td>Bottle <span style=\"background: LightGoldenRodYellow; margin: 4px; border: 1px solid khaki\"> (rmswi#100000073497)</span></td><td>30</td><td>High Density PolyEthylene <span style=\"background: LightGoldenRodYellow; margin: 4px; border: 1px solid khaki\"> (rmswi#200000003215)</span></td></tr></table></div>"
      },
      "identifier" : [{
        "use" : "official",
        "system" : "https://spor.ema.europa.eu/pmswi",
        "value" : "placeholder"
      }],
      "name" : "Talzenna 1 mg plastic bottle - 30 hard capsules",
      "type" : {
        "coding" : [{
          "system" : "https://spor.ema.europa.eu/rmswi",
          "code" : "100000155527",
          "display" : "Chemical Medicinal Product"
        }]
      },
      "packageFor" : [{
        "reference" : "MedicinalProductDefinition/mp1mg"
      }],
      "status" : {
        "coding" : [{
          "system" : "http://hl7.org/fhir/publication-status",
          "code" : "active",
          "display" : "Active"
        }]
      },
      "statusDate" : "2022-03-04T00:00:00Z",
      "containedItemQuantity" : [{
        "value" : 1,
        "system" : "http://unitsofmeasure.org",
        "code" : "mg"
      }],
      "manufacturer" : [{
        "reference" : "Organization/orgpfizerukltd"
      }],
      "packaging" : {
        "identifier" : [{
          "system" : "https://spor.ema.europa.eu/pmswi",
          "value" : "005"
        }],
        "type" : {
          "coding" : [{
            "system" : "https://spor.ema.europa.eu/rmswi",
            "code" : "100000073497",
            "display" : "Bottle"
          }]
        },
        "quantity" : 30,
        "material" : [{
          "coding" : [{
            "system" : "https://spor.ema.europa.eu/rmswi",
            "code" : "200000003215",
            "display" : "High Density PolyEthylene"
          }]
        }]
      }
    }
  },
  {
    "fullUrl" : "http://hl7.eu/fhir/ig/gravitate-health/MedicinalProductDefinition/mp025mg",
    "resource" : {
      "resourceType" : "MedicinalProductDefinition",
      "id" : "mp025mg",
      "meta" : {
        "profile" : ["http://hl7.org/fhir/uv/emedicinal-product-info/StructureDefinition/MedicinalProductDefinition-uv-epi"]
      },
      "text" : {
        "status" : "generated",
        "div" : "<div xmlns=\"http://www.w3.org/1999/xhtml\"><p><b>Generated Narrative: MedicinalProductDefinition</b><a name=\"mp025mg\"> </a></p><div style=\"display: inline-block; background-color: #d9e0e7; padding: 6px; margin: 4px; border: 1px solid #8da1b4; border-radius: 5px; line-height: 60%\"><p style=\"margin-bottom: 0px\">Resource MedicinalProductDefinition &quot;mp025mg&quot; </p><p style=\"margin-bottom: 0px\">Profile: <a href=\"https://build.fhir.org/ig/HL7/emedicinal-product-info//StructureDefinition-MedicinalProductDefinition-uv-epi.html\">MedicinalProductDefinition (ePI)</a></p></div><p><b>identifier</b>: id:\u00a0471bb15-7f52-4fcd-b615-8674ce6eb91e</p><p><b>type</b>: Medicinal Product <span style=\"background: LightGoldenRodYellow; margin: 4px; border: 1px solid khaki\"> (<a href=\"http://hl7.org/fhir/R5/codesystem-medicinal-product-type.html\">Medicinal Product Type</a>#MedicinalProduct)</span></p><p><b>domain</b>: Human use <span style=\"background: LightGoldenRodYellow; margin: 4px; border: 1px solid khaki\"> (<a href=\"http://hl7.org/fhir/R5/codesystem-medicinal-product-domain.html\">Medicinal Product Domain</a>#Human)</span></p><p><b>status</b>: active <span style=\"background: LightGoldenRodYellow; margin: 4px; border: 1px solid khaki\"> (<a href=\"http://hl7.org/fhir/R5/codesystem-publication-status.html\">PublicationStatus</a>#active)</span></p><p><b>legalStatusOfSupply</b>: Medicinal product subject to medical prescription <span style=\"background: LightGoldenRodYellow; margin: 4px; border: 1px solid khaki\"> (rmswi#100000072084)</span></p><blockquote><p><b>name</b></p><p><b>productName</b>: Talzenna® (talazoparib) 0.25 mg hard capsules</p><p><b>type</b>: Full name <span style=\"background: LightGoldenRodYellow; margin: 4px; border: 1px solid khaki\"> (220000000000#220000000001)</span></p><blockquote><p><b>part</b></p><p><b>part</b>: Talzenna</p><p><b>type</b>: Invented name part <span style=\"background: LightGoldenRodYellow; margin: 4px; border: 1px solid khaki\"> (220000000000#220000000002)</span></p></blockquote><blockquote><p><b>part</b></p><p><b>part</b>: talazoparib</p><p><b>type</b>: Scientific name part <span style=\"background: LightGoldenRodYellow; margin: 4px; border: 1px solid khaki\"> (220000000000#220000000003)</span></p></blockquote><blockquote><p><b>part</b></p><p><b>part</b>: 0.25 mg</p><p><b>type</b>: Strength part <span style=\"background: LightGoldenRodYellow; margin: 4px; border: 1px solid khaki\"> (220000000000#220000000004)</span></p></blockquote><blockquote><p><b>part</b></p><p><b>part</b>: Capsule, hard</p><p><b>type</b>: Pharmaceutical dose form part <span style=\"background: LightGoldenRodYellow; margin: 4px; border: 1px solid khaki\"> (220000000000#220000000005)</span></p></blockquote><h3>Usages</h3><table class=\"grid\"><tr><td style=\"display: none\">-</td><td><b>Country</b></td><td><b>Jurisdiction</b></td><td><b>Language</b></td></tr><tr><td style=\"display: none\">*</td><td>United Kingdom <span style=\"background: LightGoldenRodYellow; margin: 4px; border: 1px solid khaki\"> (<a href=\"http://terminology.hl7.org/5.3.0/CodeSystem-ISO3166Part1.html\">ISO 3166-1 Codes for the representation of names of countries and their subdivisions — Part 1: Country code</a>#GBR)</span></td><td>United Kingdom <span style=\"background: LightGoldenRodYellow; margin: 4px; border: 1px solid khaki\"> (<a href=\"http://terminology.hl7.org/5.3.0/CodeSystem-ISO3166Part1.html\">ISO 3166-1 Codes for the representation of names of countries and their subdivisions — Part 1: Country code</a>#GBR)</span></td><td>English <span style=\"background: LightGoldenRodYellow; margin: 4px; border: 1px solid khaki\"> (<a href=\"http://terminology.hl7.org/5.3.0/CodeSystem-v3-ietf3066.html\">Tags for the Identification of Languages</a>#en)</span></td></tr></table></blockquote></div>"
      },
      "identifier" : [{
        "system" : "http://www.mhra.gov.uk/",
        "value" : "471bb15-7f52-4fcd-b615-8674ce6eb91e"
      }],
      "type" : {
        "coding" : [{
          "system" : "http://hl7.org/fhir/medicinal-product-type",
          "code" : "MedicinalProduct",
          "display" : "Medicinal Product"
        }]
      },
      "domain" : {
        "coding" : [{
          "system" : "http://hl7.org/fhir/medicinal-product-domain",
          "code" : "Human",
          "display" : "Human use"
        }]
      },
      "status" : {
        "coding" : [{
          "system" : "http://hl7.org/fhir/publication-status",
          "code" : "active",
          "display" : "active"
        }]
      },
      "legalStatusOfSupply" : {
        "coding" : [{
          "system" : "https://spor.ema.europa.eu/rmswi",
          "code" : "100000072084",
          "display" : "Medicinal product subject to medical prescription"
        }]
      },
      "name" : [{
        "productName" : "Talzenna® (talazoparib) 0.25 mg hard capsules",
        "type" : {
          "coding" : [{
            "system" : "https://spor.ema.europa.eu/lists/220000000000",
            "code" : "220000000001"
          }],
          "text" : "Full name"
        },
        "part" : [{
          "part" : "Talzenna",
          "type" : {
            "coding" : [{
              "system" : "https://spor.ema.europa.eu/lists/220000000000",
              "code" : "220000000002"
            }],
            "text" : "Invented name part"
          }
        },
        {
          "part" : "talazoparib",
          "type" : {
            "coding" : [{
              "system" : "https://spor.ema.europa.eu/lists/220000000000",
              "code" : "220000000003"
            }],
            "text" : "Scientific name part"
          }
        },
        {
          "part" : "0.25 mg",
          "type" : {
            "coding" : [{
              "system" : "https://spor.ema.europa.eu/lists/220000000000",
              "code" : "220000000004"
            }],
            "text" : "Strength part"
          }
        },
        {
          "part" : "Capsule, hard",
          "type" : {
            "coding" : [{
              "system" : "https://spor.ema.europa.eu/lists/220000000000",
              "code" : "220000000005"
            }],
            "text" : "Pharmaceutical dose form part"
          }
        }],
        "usage" : [{
          "country" : {
            "coding" : [{
              "system" : "urn:iso:std:iso:3166",
              "code" : "GBR",
              "display" : "United Kingdom"
            }]
          },
          "jurisdiction" : {
            "coding" : [{
              "system" : "urn:iso:std:iso:3166",
              "code" : "GBR",
              "display" : "United Kingdom"
            }]
          },
          "language" : {
            "coding" : [{
              "system" : "urn:ietf:bcp:47",
              "code" : "en",
              "display" : "English"
            }]
          }
        }]
      }]
    }
  },
  {
    "fullUrl" : "http://hl7.eu/fhir/ig/gravitate-health/MedicinalProductDefinition/mp1mg",
    "resource" : {
      "resourceType" : "MedicinalProductDefinition",
      "id" : "mp1mg",
      "meta" : {
        "profile" : ["http://hl7.org/fhir/uv/emedicinal-product-info/StructureDefinition/MedicinalProductDefinition-uv-epi"]
      },
      "text" : {
        "status" : "generated",
        "div" : "<div xmlns=\"http://www.w3.org/1999/xhtml\"><p><b>Generated Narrative: MedicinalProductDefinition</b><a name=\"mp1mg\"> </a></p><div style=\"display: inline-block; background-color: #d9e0e7; padding: 6px; margin: 4px; border: 1px solid #8da1b4; border-radius: 5px; line-height: 60%\"><p style=\"margin-bottom: 0px\">Resource MedicinalProductDefinition &quot;mp1mg&quot; </p><p style=\"margin-bottom: 0px\">Profile: <a href=\"https://build.fhir.org/ig/HL7/emedicinal-product-info//StructureDefinition-MedicinalProductDefinition-uv-epi.html\">MedicinalProductDefinition (ePI)</a></p></div><p><b>identifier</b>: id:\u00a04471bb15-7f52-4fcd-b615-8674ce6eb91e</p><p><b>type</b>: Medicinal Product <span style=\"background: LightGoldenRodYellow; margin: 4px; border: 1px solid khaki\"> (<a href=\"http://hl7.org/fhir/R5/codesystem-medicinal-product-type.html\">Medicinal Product Type</a>#MedicinalProduct)</span></p><p><b>domain</b>: Human use <span style=\"background: LightGoldenRodYellow; margin: 4px; border: 1px solid khaki\"> (<a href=\"http://hl7.org/fhir/R5/codesystem-medicinal-product-domain.html\">Medicinal Product Domain</a>#Human)</span></p><p><b>status</b>: active <span style=\"background: LightGoldenRodYellow; margin: 4px; border: 1px solid khaki\"> (<a href=\"http://hl7.org/fhir/R5/codesystem-publication-status.html\">PublicationStatus</a>#active)</span></p><p><b>legalStatusOfSupply</b>: Medicinal product subject to medical prescription <span style=\"background: LightGoldenRodYellow; margin: 4px; border: 1px solid khaki\"> (rmswi#100000072084)</span></p><blockquote><p><b>name</b></p><p><b>productName</b>: Talzenna® (talazoparib) 1 mg hard capsules</p><p><b>type</b>: Full name <span style=\"background: LightGoldenRodYellow; margin: 4px; border: 1px solid khaki\"> (220000000000#220000000001)</span></p><blockquote><p><b>part</b></p><p><b>part</b>: Talzenna</p><p><b>type</b>: Invented name part <span style=\"background: LightGoldenRodYellow; margin: 4px; border: 1px solid khaki\"> (220000000000#220000000002)</span></p></blockquote><blockquote><p><b>part</b></p><p><b>part</b>: talazoparib</p><p><b>type</b>: Scientific name part <span style=\"background: LightGoldenRodYellow; margin: 4px; border: 1px solid khaki\"> (220000000000#220000000003)</span></p></blockquote><blockquote><p><b>part</b></p><p><b>part</b>: 1 mg</p><p><b>type</b>: Strength part <span style=\"background: LightGoldenRodYellow; margin: 4px; border: 1px solid khaki\"> (220000000000#220000000004)</span></p></blockquote><blockquote><p><b>part</b></p><p><b>part</b>: Capsule, hard</p><p><b>type</b>: Pharmaceutical dose form part <span style=\"background: LightGoldenRodYellow; margin: 4px; border: 1px solid khaki\"> (220000000000#220000000005)</span></p></blockquote><h3>Usages</h3><table class=\"grid\"><tr><td style=\"display: none\">-</td><td><b>Country</b></td><td><b>Jurisdiction</b></td><td><b>Language</b></td></tr><tr><td style=\"display: none\">*</td><td>United Kingdom <span style=\"background: LightGoldenRodYellow; margin: 4px; border: 1px solid khaki\"> (<a href=\"http://terminology.hl7.org/5.3.0/CodeSystem-ISO3166Part1.html\">ISO 3166-1 Codes for the representation of names of countries and their subdivisions — Part 1: Country code</a>#GBR)</span></td><td>United Kingdom <span style=\"background: LightGoldenRodYellow; margin: 4px; border: 1px solid khaki\"> (<a href=\"http://terminology.hl7.org/5.3.0/CodeSystem-ISO3166Part1.html\">ISO 3166-1 Codes for the representation of names of countries and their subdivisions — Part 1: Country code</a>#GBR)</span></td><td>English <span style=\"background: LightGoldenRodYellow; margin: 4px; border: 1px solid khaki\"> (<a href=\"http://terminology.hl7.org/5.3.0/CodeSystem-v3-ietf3066.html\">Tags for the Identification of Languages</a>#en)</span></td></tr></table></blockquote></div>"
      },
      "identifier" : [{
        "system" : "http://www.mhra.gov.uk/",
        "value" : "4471bb15-7f52-4fcd-b615-8674ce6eb91e"
      }],
      "type" : {
        "coding" : [{
          "system" : "http://hl7.org/fhir/medicinal-product-type",
          "code" : "MedicinalProduct",
          "display" : "Medicinal Product"
        }]
      },
      "domain" : {
        "coding" : [{
          "system" : "http://hl7.org/fhir/medicinal-product-domain",
          "code" : "Human",
          "display" : "Human use"
        }]
      },
      "status" : {
        "coding" : [{
          "system" : "http://hl7.org/fhir/publication-status",
          "code" : "active",
          "display" : "active"
        }]
      },
      "legalStatusOfSupply" : {
        "coding" : [{
          "system" : "https://spor.ema.europa.eu/rmswi",
          "code" : "100000072084",
          "display" : "Medicinal product subject to medical prescription"
        }]
      },
      "name" : [{
        "productName" : "Talzenna® (talazoparib) 1 mg hard capsules",
        "type" : {
          "coding" : [{
            "system" : "https://spor.ema.europa.eu/lists/220000000000",
            "code" : "220000000001"
          }],
          "text" : "Full name"
        },
        "part" : [{
          "part" : "Talzenna",
          "type" : {
            "coding" : [{
              "system" : "https://spor.ema.europa.eu/lists/220000000000",
              "code" : "220000000002"
            }],
            "text" : "Invented name part"
          }
        },
        {
          "part" : "talazoparib",
          "type" : {
            "coding" : [{
              "system" : "https://spor.ema.europa.eu/lists/220000000000",
              "code" : "220000000003"
            }],
            "text" : "Scientific name part"
          }
        },
        {
          "part" : "1 mg",
          "type" : {
            "coding" : [{
              "system" : "https://spor.ema.europa.eu/lists/220000000000",
              "code" : "220000000004"
            }],
            "text" : "Strength part"
          }
        },
        {
          "part" : "Capsule, hard",
          "type" : {
            "coding" : [{
              "system" : "https://spor.ema.europa.eu/lists/220000000000",
              "code" : "220000000005"
            }],
            "text" : "Pharmaceutical dose form part"
          }
        }],
        "usage" : [{
          "country" : {
            "coding" : [{
              "system" : "urn:iso:std:iso:3166",
              "code" : "GBR",
              "display" : "United Kingdom"
            }]
          },
          "jurisdiction" : {
            "coding" : [{
              "system" : "urn:iso:std:iso:3166",
              "code" : "GBR",
              "display" : "United Kingdom"
            }]
          },
          "language" : {
            "coding" : [{
              "system" : "urn:ietf:bcp:47",
              "code" : "en",
              "display" : "English"
            }]
          }
        }]
      }]
    }
  },
  {
    "fullUrl" : "http://hl7.eu/fhir/ig/gravitate-health/ClinicalUseDefinition/36fdf79a-1b9c-11ee-be56-0242ac120002",
    "resource" : {
      "resourceType" : "ClinicalUseDefinition",
      "id" : "36fdf79a-1b9c-11ee-be56-0242ac120002",
      "text" : {
        "status" : "generated",
        "div" : "<div xmlns=\"http://www.w3.org/1999/xhtml\"><p><b>Generated Narrative: ClinicalUseDefinition</b><a name=\"36fdf79a-1b9c-11ee-be56-0242ac120002\"> </a></p><div style=\"display: inline-block; background-color: #d9e0e7; padding: 6px; margin: 4px; border: 1px solid #8da1b4; border-radius: 5px; line-height: 60%\"><p style=\"margin-bottom: 0px\">Resource ClinicalUseDefinition &quot;36fdf79a-1b9c-11ee-be56-0242ac120002&quot; </p></div><p><b>identifier</b>: id:\u00a0N3RQ532IUT\u00a0(use:\u00a0OFFICIAL)</p><p><b>type</b>: interaction</p><p><b>subject</b>: </p><ul><li><a href=\"#MedicinalProductDefinition_mp025mg\">See above (MedicinalProductDefinition/mp025mg)</a></li><li><a href=\"#MedicinalProductDefinition_mp1mg\">See above (MedicinalProductDefinition/mp1mg)</a></li></ul><blockquote><p><b>interaction</b></p><h3>Interactants</h3><table class=\"grid\"><tr><td style=\"display: none\">-</td><td><b>Item[x]</b></td></tr><tr><td style=\"display: none\">*</td><td>Amiodarone <span style=\"background: LightGoldenRodYellow; margin: 4px; border: 1px solid khaki\"> (beta#N3RQ532IUT)</span></td></tr></table></blockquote></div>"
      },
      "identifier" : [{
        "use" : "official",
        "system" : "https://gsrs.ncats.nih.gov/ginas/app/beta",
        "value" : "N3RQ532IUT"
      }],
      "type" : "interaction",
      "subject" : [{
        "reference" : "MedicinalProductDefinition/mp025mg"
      },
      {
        "reference" : "MedicinalProductDefinition/mp1mg"
      }],
      "interaction" : {
        "interactant" : [{
          "itemCodeableConcept" : {
            "coding" : [{
              "system" : "https://gsrs.ncats.nih.gov/ginas/app/beta",
              "code" : "N3RQ532IUT",
              "display" : "Amiodarone"
            }]
          }
        }]
      }
    }
  },
  {
    "fullUrl" : "http://hl7.eu/fhir/ig/gravitate-health/ClinicalUseDefinition/81a382e7-8e11-4097-a3fb-362de8c9377e",
    "resource" : {
      "resourceType" : "ClinicalUseDefinition",
      "id" : "81a382e7-8e11-4097-a3fb-362de8c9377e",
      "text" : {
        "status" : "generated",
        "div" : "<div xmlns=\"http://www.w3.org/1999/xhtml\"><p><b>Generated Narrative: ClinicalUseDefinition</b><a name=\"81a382e7-8e11-4097-a3fb-362de8c9377e\"> </a></p><div style=\"display: inline-block; background-color: #d9e0e7; padding: 6px; margin: 4px; border: 1px solid #8da1b4; border-radius: 5px; line-height: 60%\"><p style=\"margin-bottom: 0px\">Resource ClinicalUseDefinition &quot;81a382e7-8e11-4097-a3fb-362de8c9377e&quot; </p></div><p><b>identifier</b>: id:\u00a00K47UL67F2\u00a0(use:\u00a0OFFICIAL)</p><p><b>type</b>: interaction</p><p><b>subject</b>: </p><ul><li><a href=\"#MedicinalProductDefinition_mp025mg\">See above (MedicinalProductDefinition/mp025mg)</a></li><li><a href=\"#MedicinalProductDefinition_mp1mg\">See above (MedicinalProductDefinition/mp1mg)</a></li></ul><blockquote><p><b>interaction</b></p><h3>Interactants</h3><table class=\"grid\"><tr><td style=\"display: none\">-</td><td><b>Item[x]</b></td></tr><tr><td style=\"display: none\">*</td><td>carvedilol <span style=\"background: LightGoldenRodYellow; margin: 4px; border: 1px solid khaki\"> (beta#0K47UL67F2)</span></td></tr></table></blockquote></div>"
      },
      "identifier" : [{
        "use" : "official",
        "system" : "https://gsrs.ncats.nih.gov/ginas/app/beta",
        "value" : "0K47UL67F2"
      }],
      "type" : "interaction",
      "subject" : [{
        "reference" : "MedicinalProductDefinition/mp025mg"
      },
      {
        "reference" : "MedicinalProductDefinition/mp1mg"
      }],
      "interaction" : {
        "interactant" : [{
          "itemCodeableConcept" : {
            "coding" : [{
              "system" : "https://gsrs.ncats.nih.gov/ginas/app/beta",
              "code" : "0K47UL67F2",
              "display" : "carvedilol"
            }]
          }
        }]
      }
    }
  },
  {
    "fullUrl" : "http://hl7.eu/fhir/ig/gravitate-health/ClinicalUseDefinition/3a099eb4-fc14-41c3-bc14-8e5a4b5c51e9",
    "resource" : {
      "resourceType" : "ClinicalUseDefinition",
      "id" : "3a099eb4-fc14-41c3-bc14-8e5a4b5c51e9",
      "text" : {
        "status" : "generated",
        "div" : "<div xmlns=\"http://www.w3.org/1999/xhtml\"><p><b>Generated Narrative: ClinicalUseDefinition</b><a name=\"3a099eb4-fc14-41c3-bc14-8e5a4b5c51e9\"> </a></p><div style=\"display: inline-block; background-color: #d9e0e7; padding: 6px; margin: 4px; border: 1px solid #8da1b4; border-radius: 5px; line-height: 60%\"><p style=\"margin-bottom: 0px\">Resource ClinicalUseDefinition &quot;3a099eb4-fc14-41c3-bc14-8e5a4b5c51e9&quot; </p></div><p><b>identifier</b>: id:\u00a0JQZ1L091Y2\u00a0(use:\u00a0OFFICIAL)</p><p><b>type</b>: interaction</p><p><b>subject</b>: </p><ul><li><a href=\"#MedicinalProductDefinition_mp025mg\">See above (MedicinalProductDefinition/mp025mg)</a></li><li><a href=\"#MedicinalProductDefinition_mp1mg\">See above (MedicinalProductDefinition/mp1mg)</a></li></ul><blockquote><p><b>interaction</b></p><h3>Interactants</h3><table class=\"grid\"><tr><td style=\"display: none\">-</td><td><b>Item[x]</b></td></tr><tr><td style=\"display: none\">*</td><td>dronedarone <span style=\"background: LightGoldenRodYellow; margin: 4px; border: 1px solid khaki\"> (beta#JQZ1L091Y2)</span></td></tr></table></blockquote></div>"
      },
      "identifier" : [{
        "use" : "official",
        "system" : "https://gsrs.ncats.nih.gov/ginas/app/beta",
        "value" : "JQZ1L091Y2"
      }],
      "type" : "interaction",
      "subject" : [{
        "reference" : "MedicinalProductDefinition/mp025mg"
      },
      {
        "reference" : "MedicinalProductDefinition/mp1mg"
      }],
      "interaction" : {
        "interactant" : [{
          "itemCodeableConcept" : {
            "coding" : [{
              "system" : "https://gsrs.ncats.nih.gov/ginas/app/beta",
              "code" : "JQZ1L091Y2",
              "display" : "dronedarone"
            }]
          }
        }]
      }
    }
  },
  {
    "fullUrl" : "http://hl7.eu/fhir/ig/gravitate-health/ClinicalUseDefinition/341721cd-5b7e-4b97-895e-e489b1310f9b",
    "resource" : {
      "resourceType" : "ClinicalUseDefinition",
      "id" : "341721cd-5b7e-4b97-895e-e489b1310f9b",
      "text" : {
        "status" : "generated",
        "div" : "<div xmlns=\"http://www.w3.org/1999/xhtml\"><p><b>Generated Narrative: ClinicalUseDefinition</b><a name=\"341721cd-5b7e-4b97-895e-e489b1310f9b\"> </a></p><div style=\"display: inline-block; background-color: #d9e0e7; padding: 6px; margin: 4px; border: 1px solid #8da1b4; border-radius: 5px; line-height: 60%\"><p style=\"margin-bottom: 0px\">Resource ClinicalUseDefinition &quot;341721cd-5b7e-4b97-895e-e489b1310f9b&quot; </p></div><p><b>identifier</b>: id:\u00a068IQX3T69U\u00a0(use:\u00a0OFFICIAL)</p><p><b>type</b>: interaction</p><p><b>subject</b>: </p><ul><li><a href=\"#MedicinalProductDefinition_mp025mg\">See above (MedicinalProductDefinition/mp025mg)</a></li><li><a href=\"#MedicinalProductDefinition_mp1mg\">See above (MedicinalProductDefinition/mp1mg)</a></li></ul><blockquote><p><b>interaction</b></p><h3>Interactants</h3><table class=\"grid\"><tr><td style=\"display: none\">-</td><td><b>Item[x]</b></td></tr><tr><td style=\"display: none\">*</td><td>propafenone <span style=\"background: LightGoldenRodYellow; margin: 4px; border: 1px solid khaki\"> (beta#68IQX3T69U)</span></td></tr></table></blockquote></div>"
      },
      "identifier" : [{
        "use" : "official",
        "system" : "https://gsrs.ncats.nih.gov/ginas/app/beta",
        "value" : "68IQX3T69U"
      }],
      "type" : "interaction",
      "subject" : [{
        "reference" : "MedicinalProductDefinition/mp025mg"
      },
      {
        "reference" : "MedicinalProductDefinition/mp1mg"
      }],
      "interaction" : {
        "interactant" : [{
          "itemCodeableConcept" : {
            "coding" : [{
              "system" : "https://gsrs.ncats.nih.gov/ginas/app/beta",
              "code" : "68IQX3T69U",
              "display" : "propafenone"
            }]
          }
        }]
      }
    }
  },
  {
    "fullUrl" : "http://hl7.eu/fhir/ig/gravitate-health/ClinicalUseDefinition/c15dd79b-e98e-4f1b-8a05-50f12b0c19d7",
    "resource" : {
      "resourceType" : "ClinicalUseDefinition",
      "id" : "c15dd79b-e98e-4f1b-8a05-50f12b0c19d7",
      "text" : {
        "status" : "generated",
        "div" : "<div xmlns=\"http://www.w3.org/1999/xhtml\"><p><b>Generated Narrative: ClinicalUseDefinition</b><a name=\"c15dd79b-e98e-4f1b-8a05-50f12b0c19d7\"> </a></p><div style=\"display: inline-block; background-color: #d9e0e7; padding: 6px; margin: 4px; border: 1px solid #8da1b4; border-radius: 5px; line-height: 60%\"><p style=\"margin-bottom: 0px\">Resource ClinicalUseDefinition &quot;c15dd79b-e98e-4f1b-8a05-50f12b0c19d7&quot; </p></div><p><b>identifier</b>: id:\u00a0ITX08688JL\u00a0(use:\u00a0OFFICIAL)</p><p><b>type</b>: interaction</p><p><b>subject</b>: </p><ul><li><a href=\"#MedicinalProductDefinition_mp025mg\">See above (MedicinalProductDefinition/mp025mg)</a></li><li><a href=\"#MedicinalProductDefinition_mp1mg\">See above (MedicinalProductDefinition/mp1mg)</a></li></ul><blockquote><p><b>interaction</b></p><h3>Interactants</h3><table class=\"grid\"><tr><td style=\"display: none\">-</td><td><b>Item[x]</b></td></tr><tr><td style=\"display: none\">*</td><td>quinidine <span style=\"background: LightGoldenRodYellow; margin: 4px; border: 1px solid khaki\"> (beta#ITX08688JL)</span></td></tr></table></blockquote></div>"
      },
      "identifier" : [{
        "use" : "official",
        "system" : "https://gsrs.ncats.nih.gov/ginas/app/beta",
        "value" : "ITX08688JL"
      }],
      "type" : "interaction",
      "subject" : [{
        "reference" : "MedicinalProductDefinition/mp025mg"
      },
      {
        "reference" : "MedicinalProductDefinition/mp1mg"
      }],
      "interaction" : {
        "interactant" : [{
          "itemCodeableConcept" : {
            "coding" : [{
              "system" : "https://gsrs.ncats.nih.gov/ginas/app/beta",
              "code" : "ITX08688JL",
              "display" : "quinidine"
            }]
          }
        }]
      }
    }
  },
  {
    "fullUrl" : "http://hl7.eu/fhir/ig/gravitate-health/ClinicalUseDefinition/5a54b656-5e2c-4be0-b93f-7d540cb64711",
    "resource" : {
      "resourceType" : "ClinicalUseDefinition",
      "id" : "5a54b656-5e2c-4be0-b93f-7d540cb64711",
      "text" : {
        "status" : "generated",
        "div" : "<div xmlns=\"http://www.w3.org/1999/xhtml\"><p><b>Generated Narrative: ClinicalUseDefinition</b><a name=\"5a54b656-5e2c-4be0-b93f-7d540cb64711\"> </a></p><div style=\"display: inline-block; background-color: #d9e0e7; padding: 6px; margin: 4px; border: 1px solid #8da1b4; border-radius: 5px; line-height: 60%\"><p style=\"margin-bottom: 0px\">Resource ClinicalUseDefinition &quot;5a54b656-5e2c-4be0-b93f-7d540cb64711&quot; </p></div><p><b>identifier</b>: id:\u00a0A6IEZ5M406\u00a0(use:\u00a0OFFICIAL)</p><p><b>type</b>: interaction</p><p><b>subject</b>: </p><ul><li><a href=\"#MedicinalProductDefinition_mp025mg\">See above (MedicinalProductDefinition/mp025mg)</a></li><li><a href=\"#MedicinalProductDefinition_mp1mg\">See above (MedicinalProductDefinition/mp1mg)</a></li></ul><blockquote><p><b>interaction</b></p><h3>Interactants</h3><table class=\"grid\"><tr><td style=\"display: none\">-</td><td><b>Item[x]</b></td></tr><tr><td style=\"display: none\">*</td><td>ranolazine <span style=\"background: LightGoldenRodYellow; margin: 4px; border: 1px solid khaki\"> (beta#A6IEZ5M406)</span></td></tr></table></blockquote></div>"
      },
      "identifier" : [{
        "use" : "official",
        "system" : "https://gsrs.ncats.nih.gov/ginas/app/beta",
        "value" : "A6IEZ5M406"
      }],
      "type" : "interaction",
      "subject" : [{
        "reference" : "MedicinalProductDefinition/mp025mg"
      },
      {
        "reference" : "MedicinalProductDefinition/mp1mg"
      }],
      "interaction" : {
        "interactant" : [{
          "itemCodeableConcept" : {
            "coding" : [{
              "system" : "https://gsrs.ncats.nih.gov/ginas/app/beta",
              "code" : "A6IEZ5M406",
              "display" : "ranolazine"
            }]
          }
        }]
      }
    }
  },
  {
    "fullUrl" : "http://hl7.eu/fhir/ig/gravitate-health/ClinicalUseDefinition/4907c33b-e1ae-40a7-9e7c-242653c92e60",
    "resource" : {
      "resourceType" : "ClinicalUseDefinition",
      "id" : "4907c33b-e1ae-40a7-9e7c-242653c92e60",
      "text" : {
        "status" : "generated",
        "div" : "<div xmlns=\"http://www.w3.org/1999/xhtml\"><p><b>Generated Narrative: ClinicalUseDefinition</b><a name=\"4907c33b-e1ae-40a7-9e7c-242653c92e60\"> </a></p><div style=\"display: inline-block; background-color: #d9e0e7; padding: 6px; margin: 4px; border: 1px solid #8da1b4; border-radius: 5px; line-height: 60%\"><p style=\"margin-bottom: 0px\">Resource ClinicalUseDefinition &quot;4907c33b-e1ae-40a7-9e7c-242653c92e60&quot; </p></div><p><b>identifier</b>: id:\u00a0CJ0O37KU29\u00a0(use:\u00a0OFFICIAL)</p><p><b>type</b>: interaction</p><p><b>subject</b>: </p><ul><li><a href=\"#MedicinalProductDefinition_mp025mg\">See above (MedicinalProductDefinition/mp025mg)</a></li><li><a href=\"#MedicinalProductDefinition_mp1mg\">See above (MedicinalProductDefinition/mp1mg)</a></li></ul><blockquote><p><b>interaction</b></p><h3>Interactants</h3><table class=\"grid\"><tr><td style=\"display: none\">-</td><td><b>Item[x]</b></td></tr><tr><td style=\"display: none\">*</td><td>verapamil <span style=\"background: LightGoldenRodYellow; margin: 4px; border: 1px solid khaki\"> (beta#CJ0O37KU29)</span></td></tr></table></blockquote></div>"
      },
      "identifier" : [{
        "use" : "official",
        "system" : "https://gsrs.ncats.nih.gov/ginas/app/beta",
        "value" : "CJ0O37KU29"
      }],
      "type" : "interaction",
      "subject" : [{
        "reference" : "MedicinalProductDefinition/mp025mg"
      },
      {
        "reference" : "MedicinalProductDefinition/mp1mg"
      }],
      "interaction" : {
        "interactant" : [{
          "itemCodeableConcept" : {
            "coding" : [{
              "system" : "https://gsrs.ncats.nih.gov/ginas/app/beta",
              "code" : "CJ0O37KU29",
              "display" : "verapamil"
            }]
          }
        }]
      }
    }
  },
  {
    "fullUrl" : "http://hl7.eu/fhir/ig/gravitate-health/ClinicalUseDefinition/05a52022-c29a-4883-873b-c4cfaf05a696",
    "resource" : {
      "resourceType" : "ClinicalUseDefinition",
      "id" : "05a52022-c29a-4883-873b-c4cfaf05a696",
      "text" : {
        "status" : "generated",
        "div" : "<div xmlns=\"http://www.w3.org/1999/xhtml\"><p><b>Generated Narrative: ClinicalUseDefinition</b><a name=\"05a52022-c29a-4883-873b-c4cfaf05a696\"> </a></p><div style=\"display: inline-block; background-color: #d9e0e7; padding: 6px; margin: 4px; border: 1px solid #8da1b4; border-radius: 5px; line-height: 60%\"><p style=\"margin-bottom: 0px\">Resource ClinicalUseDefinition &quot;05a52022-c29a-4883-873b-c4cfaf05a696&quot; </p></div><p><b>identifier</b>: id:\u00a0H1250JIK0A\u00a0(use:\u00a0OFFICIAL)</p><p><b>type</b>: interaction</p><p><b>subject</b>: </p><ul><li><a href=\"#MedicinalProductDefinition_mp025mg\">See above (MedicinalProductDefinition/mp025mg)</a></li><li><a href=\"#MedicinalProductDefinition_mp1mg\">See above (MedicinalProductDefinition/mp1mg)</a></li></ul><blockquote><p><b>interaction</b></p><h3>Interactants</h3><table class=\"grid\"><tr><td style=\"display: none\">-</td><td><b>Item[x]</b></td></tr><tr><td style=\"display: none\">*</td><td>Clarithromycin <span style=\"background: LightGoldenRodYellow; margin: 4px; border: 1px solid khaki\"> (beta#H1250JIK0A)</span></td></tr></table></blockquote></div>"
      },
      "identifier" : [{
        "use" : "official",
        "system" : "https://gsrs.ncats.nih.gov/ginas/app/beta",
        "value" : "H1250JIK0A"
      }],
      "type" : "interaction",
      "subject" : [{
        "reference" : "MedicinalProductDefinition/mp025mg"
      },
      {
        "reference" : "MedicinalProductDefinition/mp1mg"
      }],
      "interaction" : {
        "interactant" : [{
          "itemCodeableConcept" : {
            "coding" : [{
              "system" : "https://gsrs.ncats.nih.gov/ginas/app/beta",
              "code" : "H1250JIK0A",
              "display" : "Clarithromycin"
            }]
          }
        }]
      }
    }
  },
  {
    "fullUrl" : "http://hl7.eu/fhir/ig/gravitate-health/ClinicalUseDefinition/e0b859d1-beac-494d-b7d9-fe793efbbd96",
    "resource" : {
      "resourceType" : "ClinicalUseDefinition",
      "id" : "e0b859d1-beac-494d-b7d9-fe793efbbd96",
      "text" : {
        "status" : "generated",
        "div" : "<div xmlns=\"http://www.w3.org/1999/xhtml\"><p><b>Generated Narrative: ClinicalUseDefinition</b><a name=\"e0b859d1-beac-494d-b7d9-fe793efbbd96\"> </a></p><div style=\"display: inline-block; background-color: #d9e0e7; padding: 6px; margin: 4px; border: 1px solid #8da1b4; border-radius: 5px; line-height: 60%\"><p style=\"margin-bottom: 0px\">Resource ClinicalUseDefinition &quot;e0b859d1-beac-494d-b7d9-fe793efbbd96&quot; </p></div><p><b>identifier</b>: id:\u00a063937KV33D\u00a0(use:\u00a0OFFICIAL)</p><p><b>type</b>: interaction</p><p><b>subject</b>: </p><ul><li><a href=\"#MedicinalProductDefinition_mp025mg\">See above (MedicinalProductDefinition/mp025mg)</a></li><li><a href=\"#MedicinalProductDefinition_mp1mg\">See above (MedicinalProductDefinition/mp1mg)</a></li></ul><blockquote><p><b>interaction</b></p><h3>Interactants</h3><table class=\"grid\"><tr><td style=\"display: none\">-</td><td><b>Item[x]</b></td></tr><tr><td style=\"display: none\">*</td><td>erythromycin <span style=\"background: LightGoldenRodYellow; margin: 4px; border: 1px solid khaki\"> (beta#63937KV33D)</span></td></tr></table></blockquote></div>"
      },
      "identifier" : [{
        "use" : "official",
        "system" : "https://gsrs.ncats.nih.gov/ginas/app/beta",
        "value" : "63937KV33D"
      }],
      "type" : "interaction",
      "subject" : [{
        "reference" : "MedicinalProductDefinition/mp025mg"
      },
      {
        "reference" : "MedicinalProductDefinition/mp1mg"
      }],
      "interaction" : {
        "interactant" : [{
          "itemCodeableConcept" : {
            "coding" : [{
              "system" : "https://gsrs.ncats.nih.gov/ginas/app/beta",
              "code" : "63937KV33D",
              "display" : "erythromycin"
            }]
          }
        }]
      }
    }
  },
  {
    "fullUrl" : "http://hl7.eu/fhir/ig/gravitate-health/ClinicalUseDefinition/e09c86b1-b802-4c2e-b8eb-6b49192fadfe",
    "resource" : {
      "resourceType" : "ClinicalUseDefinition",
      "id" : "e09c86b1-b802-4c2e-b8eb-6b49192fadfe",
      "text" : {
        "status" : "generated",
        "div" : "<div xmlns=\"http://www.w3.org/1999/xhtml\"><p><b>Generated Narrative: ClinicalUseDefinition</b><a name=\"e09c86b1-b802-4c2e-b8eb-6b49192fadfe\"> </a></p><div style=\"display: inline-block; background-color: #d9e0e7; padding: 6px; margin: 4px; border: 1px solid #8da1b4; border-radius: 5px; line-height: 60%\"><p style=\"margin-bottom: 0px\">Resource ClinicalUseDefinition &quot;e09c86b1-b802-4c2e-b8eb-6b49192fadfe&quot; </p></div><p><b>identifier</b>: id:\u00a0304NUG5GF4\u00a0(use:\u00a0OFFICIAL)</p><p><b>type</b>: interaction</p><p><b>subject</b>: </p><ul><li><a href=\"#MedicinalProductDefinition_mp025mg\">See above (MedicinalProductDefinition/mp025mg)</a></li><li><a href=\"#MedicinalProductDefinition_mp1mg\">See above (MedicinalProductDefinition/mp1mg)</a></li></ul><blockquote><p><b>interaction</b></p><h3>Interactants</h3><table class=\"grid\"><tr><td style=\"display: none\">-</td><td><b>Item[x]</b></td></tr><tr><td style=\"display: none\">*</td><td>Itraconazole <span style=\"background: LightGoldenRodYellow; margin: 4px; border: 1px solid khaki\"> (beta#304NUG5GF4)</span></td></tr></table></blockquote></div>"
      },
      "identifier" : [{
        "use" : "official",
        "system" : "https://gsrs.ncats.nih.gov/ginas/app/beta",
        "value" : "304NUG5GF4"
      }],
      "type" : "interaction",
      "subject" : [{
        "reference" : "MedicinalProductDefinition/mp025mg"
      },
      {
        "reference" : "MedicinalProductDefinition/mp1mg"
      }],
      "interaction" : {
        "interactant" : [{
          "itemCodeableConcept" : {
            "coding" : [{
              "system" : "https://gsrs.ncats.nih.gov/ginas/app/beta",
              "code" : "304NUG5GF4",
              "display" : "Itraconazole"
            }]
          }
        }]
      }
    }
  },
  {
    "fullUrl" : "http://hl7.eu/fhir/ig/gravitate-health/ClinicalUseDefinition/b31a89e6-abda-40eb-ba77-5ec9357b62e7",
    "resource" : {
      "resourceType" : "ClinicalUseDefinition",
      "id" : "b31a89e6-abda-40eb-ba77-5ec9357b62e7",
      "text" : {
        "status" : "generated",
        "div" : "<div xmlns=\"http://www.w3.org/1999/xhtml\"><p><b>Generated Narrative: ClinicalUseDefinition</b><a name=\"b31a89e6-abda-40eb-ba77-5ec9357b62e7\"> </a></p><div style=\"display: inline-block; background-color: #d9e0e7; padding: 6px; margin: 4px; border: 1px solid #8da1b4; border-radius: 5px; line-height: 60%\"><p style=\"margin-bottom: 0px\">Resource ClinicalUseDefinition &quot;b31a89e6-abda-40eb-ba77-5ec9357b62e7&quot; </p></div><p><b>identifier</b>: id:\u00a0R9400W927I\u00a0(use:\u00a0OFFICIAL)</p><p><b>type</b>: interaction</p><p><b>subject</b>: </p><ul><li><a href=\"#MedicinalProductDefinition_mp025mg\">See above (MedicinalProductDefinition/mp025mg)</a></li><li><a href=\"#MedicinalProductDefinition_mp1mg\">See above (MedicinalProductDefinition/mp1mg)</a></li></ul><blockquote><p><b>interaction</b></p><h3>Interactants</h3><table class=\"grid\"><tr><td style=\"display: none\">-</td><td><b>Item[x]</b></td></tr><tr><td style=\"display: none\">*</td><td>ketoconazole <span style=\"background: LightGoldenRodYellow; margin: 4px; border: 1px solid khaki\"> (beta#R9400W927I)</span></td></tr></table></blockquote></div>"
      },
      "identifier" : [{
        "use" : "official",
        "system" : "https://gsrs.ncats.nih.gov/ginas/app/beta",
        "value" : "R9400W927I"
      }],
      "type" : "interaction",
      "subject" : [{
        "reference" : "MedicinalProductDefinition/mp025mg"
      },
      {
        "reference" : "MedicinalProductDefinition/mp1mg"
      }],
      "interaction" : {
        "interactant" : [{
          "itemCodeableConcept" : {
            "coding" : [{
              "system" : "https://gsrs.ncats.nih.gov/ginas/app/beta",
              "code" : "R9400W927I",
              "display" : "ketoconazole"
            }]
          }
        }]
      }
    }
  },
  {
    "fullUrl" : "http://hl7.eu/fhir/ig/gravitate-health/ClinicalUseDefinition/f0914110-749f-4afa-982a-627eacb5720b",
    "resource" : {
      "resourceType" : "ClinicalUseDefinition",
      "id" : "f0914110-749f-4afa-982a-627eacb5720b",
      "text" : {
        "status" : "generated",
        "div" : "<div xmlns=\"http://www.w3.org/1999/xhtml\"><p><b>Generated Narrative: ClinicalUseDefinition</b><a name=\"f0914110-749f-4afa-982a-627eacb5720b\"> </a></p><div style=\"display: inline-block; background-color: #d9e0e7; padding: 6px; margin: 4px; border: 1px solid #8da1b4; border-radius: 5px; line-height: 60%\"><p style=\"margin-bottom: 0px\">Resource ClinicalUseDefinition &quot;f0914110-749f-4afa-982a-627eacb5720b&quot; </p></div><p><b>identifier</b>: id:\u00a0LW2E03M5PG\u00a0(use:\u00a0OFFICIAL)</p><p><b>type</b>: interaction</p><p><b>subject</b>: </p><ul><li><a href=\"#MedicinalProductDefinition_mp025mg\">See above (MedicinalProductDefinition/mp025mg)</a></li><li><a href=\"#MedicinalProductDefinition_mp1mg\">See above (MedicinalProductDefinition/mp1mg)</a></li></ul><blockquote><p><b>interaction</b></p><h3>Interactants</h3><table class=\"grid\"><tr><td style=\"display: none\">-</td><td><b>Item[x]</b></td></tr><tr><td style=\"display: none\">*</td><td>Cobicistat <span style=\"background: LightGoldenRodYellow; margin: 4px; border: 1px solid khaki\"> (beta#LW2E03M5PG)</span></td></tr></table></blockquote></div>"
      },
      "identifier" : [{
        "use" : "official",
        "system" : "https://gsrs.ncats.nih.gov/ginas/app/beta",
        "value" : "LW2E03M5PG"
      }],
      "type" : "interaction",
      "subject" : [{
        "reference" : "MedicinalProductDefinition/mp025mg"
      },
      {
        "reference" : "MedicinalProductDefinition/mp1mg"
      }],
      "interaction" : {
        "interactant" : [{
          "itemCodeableConcept" : {
            "coding" : [{
              "system" : "https://gsrs.ncats.nih.gov/ginas/app/beta",
              "code" : "LW2E03M5PG",
              "display" : "Cobicistat"
            }]
          }
        }]
      }
    }
  },
  {
    "fullUrl" : "http://hl7.eu/fhir/ig/gravitate-health/ClinicalUseDefinition/b40984a8-0a6b-43d0-911a-ff5b927fb4ca",
    "resource" : {
      "resourceType" : "ClinicalUseDefinition",
      "id" : "b40984a8-0a6b-43d0-911a-ff5b927fb4ca",
      "meta" : {
        "profile" : ["http://hl7.org/fhir/uv/emedicinal-product-info/StructureDefinition/ClinicalUseDefinition-interaction-uv-epi"]
      },
      "text" : {
        "status" : "generated",
        "div" : "<div xmlns=\"http://www.w3.org/1999/xhtml\"><p><b>Generated Narrative: ClinicalUseDefinition</b><a name=\"b40984a8-0a6b-43d0-911a-ff5b927fb4ca\"> </a></p><div style=\"display: inline-block; background-color: #d9e0e7; padding: 6px; margin: 4px; border: 1px solid #8da1b4; border-radius: 5px; line-height: 60%\"><p style=\"margin-bottom: 0px\">Resource ClinicalUseDefinition &quot;b40984a8-0a6b-43d0-911a-ff5b927fb4ca&quot; </p><p style=\"margin-bottom: 0px\">Profile: <a href=\"https://build.fhir.org/ig/HL7/emedicinal-product-info//StructureDefinition-ClinicalUseDefinition-interaction-uv-epi.html\">ClinicalUseDefinition Interaction (ePI)</a></p></div><p><b>identifier</b>: id:\u00a0YO603Y8113\u00a0(use:\u00a0OFFICIAL)</p><p><b>type</b>: interaction</p><p><b>subject</b>: </p><ul><li><a href=\"#MedicinalProductDefinition_mp025mg\">See above (MedicinalProductDefinition/mp025mg)</a></li><li><a href=\"#MedicinalProductDefinition_mp1mg\">See above (MedicinalProductDefinition/mp1mg)</a></li></ul><blockquote><p><b>interaction</b></p><h3>Interactants</h3><table class=\"grid\"><tr><td style=\"display: none\">-</td><td><b>Item[x]</b></td></tr><tr><td style=\"display: none\">*</td><td>darunavir <span style=\"background: LightGoldenRodYellow; margin: 4px; border: 1px solid khaki\"> (beta#YO603Y8113)</span></td></tr></table></blockquote></div>"
      },
      "identifier" : [{
        "use" : "official",
        "system" : "https://gsrs.ncats.nih.gov/ginas/app/beta",
        "value" : "YO603Y8113"
      }],
      "type" : "interaction",
      "subject" : [{
        "reference" : "MedicinalProductDefinition/mp025mg"
      },
      {
        "reference" : "MedicinalProductDefinition/mp1mg"
      }],
      "interaction" : {
        "interactant" : [{
          "itemCodeableConcept" : {
            "coding" : [{
              "system" : "https://gsrs.ncats.nih.gov/ginas/app/beta",
              "code" : "YO603Y8113",
              "display" : "darunavir"
            }]
          }
        }]
      }
    }
  },
  {
    "fullUrl" : "http://hl7.eu/fhir/ig/gravitate-health/ClinicalUseDefinition/8d54b4fd-1b9f-4114-991a-0a08e1dc2d98",
    "resource" : {
      "resourceType" : "ClinicalUseDefinition",
      "id" : "8d54b4fd-1b9f-4114-991a-0a08e1dc2d98",
      "text" : {
        "status" : "generated",
        "div" : "<div xmlns=\"http://www.w3.org/1999/xhtml\"><p><b>Generated Narrative: ClinicalUseDefinition</b><a name=\"8d54b4fd-1b9f-4114-991a-0a08e1dc2d98\"> </a></p><div style=\"display: inline-block; background-color: #d9e0e7; padding: 6px; margin: 4px; border: 1px solid #8da1b4; border-radius: 5px; line-height: 60%\"><p style=\"margin-bottom: 0px\">Resource ClinicalUseDefinition &quot;8d54b4fd-1b9f-4114-991a-0a08e1dc2d98&quot; </p></div><p><b>identifier</b>: id:\u00a05W6YA9PKKH\u00a0(use:\u00a0OFFICIAL)</p><p><b>type</b>: interaction</p><p><b>subject</b>: </p><ul><li><a href=\"#MedicinalProductDefinition_mp025mg\">See above (MedicinalProductDefinition/mp025mg)</a></li><li><a href=\"#MedicinalProductDefinition_mp1mg\">See above (MedicinalProductDefinition/mp1mg)</a></li></ul><blockquote><p><b>interaction</b></p><h3>Interactants</h3><table class=\"grid\"><tr><td style=\"display: none\">-</td><td><b>Item[x]</b></td></tr><tr><td style=\"display: none\">*</td><td>indinavir <span style=\"background: LightGoldenRodYellow; margin: 4px; border: 1px solid khaki\"> (beta#5W6YA9PKKH)</span></td></tr></table></blockquote></div>"
      },
      "identifier" : [{
        "use" : "official",
        "system" : "https://gsrs.ncats.nih.gov/ginas/app/beta",
        "value" : "5W6YA9PKKH"
      }],
      "type" : "interaction",
      "subject" : [{
        "reference" : "MedicinalProductDefinition/mp025mg"
      },
      {
        "reference" : "MedicinalProductDefinition/mp1mg"
      }],
      "interaction" : {
        "interactant" : [{
          "itemCodeableConcept" : {
            "coding" : [{
              "system" : "https://gsrs.ncats.nih.gov/ginas/app/beta",
              "code" : "5W6YA9PKKH",
              "display" : "indinavir"
            }]
          }
        }]
      }
    }
  },
  {
    "fullUrl" : "http://hl7.eu/fhir/ig/gravitate-health/ClinicalUseDefinition/3e52afa2-3310-4e52-9d61-7bfcfd97a25f",
    "resource" : {
      "resourceType" : "ClinicalUseDefinition",
      "id" : "3e52afa2-3310-4e52-9d61-7bfcfd97a25f",
      "text" : {
        "status" : "generated",
        "div" : "<div xmlns=\"http://www.w3.org/1999/xhtml\"><p><b>Generated Narrative: ClinicalUseDefinition</b><a name=\"3e52afa2-3310-4e52-9d61-7bfcfd97a25f\"> </a></p><div style=\"display: inline-block; background-color: #d9e0e7; padding: 6px; margin: 4px; border: 1px solid #8da1b4; border-radius: 5px; line-height: 60%\"><p style=\"margin-bottom: 0px\">Resource ClinicalUseDefinition &quot;3e52afa2-3310-4e52-9d61-7bfcfd97a25f&quot; </p></div><p><b>identifier</b>: id:\u00a02494G1JF75\u00a0(use:\u00a0OFFICIAL)</p><p><b>type</b>: interaction</p><p><b>subject</b>: </p><ul><li><a href=\"#MedicinalProductDefinition_mp025mg\">See above (MedicinalProductDefinition/mp025mg)</a></li><li><a href=\"#MedicinalProductDefinition_mp1mg\">See above (MedicinalProductDefinition/mp1mg)</a></li></ul><blockquote><p><b>interaction</b></p><h3>Interactants</h3><table class=\"grid\"><tr><td style=\"display: none\">-</td><td><b>Item[x]</b></td></tr><tr><td style=\"display: none\">*</td><td>lopinavir <span style=\"background: LightGoldenRodYellow; margin: 4px; border: 1px solid khaki\"> (beta#2494G1JF75)</span></td></tr></table></blockquote></div>"
      },
      "identifier" : [{
        "use" : "official",
        "system" : "https://gsrs.ncats.nih.gov/ginas/app/beta",
        "value" : "2494G1JF75"
      }],
      "type" : "interaction",
      "subject" : [{
        "reference" : "MedicinalProductDefinition/mp025mg"
      },
      {
        "reference" : "MedicinalProductDefinition/mp1mg"
      }],
      "interaction" : {
        "interactant" : [{
          "itemCodeableConcept" : {
            "coding" : [{
              "system" : "https://gsrs.ncats.nih.gov/ginas/app/beta",
              "code" : "2494G1JF75",
              "display" : "lopinavir"
            }]
          }
        }]
      }
    }
  },
  {
    "fullUrl" : "http://hl7.eu/fhir/ig/gravitate-health/ClinicalUseDefinition/9654bfac-8458-4172-b74f-680a95036cff",
    "resource" : {
      "resourceType" : "ClinicalUseDefinition",
      "id" : "9654bfac-8458-4172-b74f-680a95036cff",
      "text" : {
        "status" : "generated",
        "div" : "<div xmlns=\"http://www.w3.org/1999/xhtml\"><p><b>Generated Narrative: ClinicalUseDefinition</b><a name=\"9654bfac-8458-4172-b74f-680a95036cff\"> </a></p><div style=\"display: inline-block; background-color: #d9e0e7; padding: 6px; margin: 4px; border: 1px solid #8da1b4; border-radius: 5px; line-height: 60%\"><p style=\"margin-bottom: 0px\">Resource ClinicalUseDefinition &quot;9654bfac-8458-4172-b74f-680a95036cff&quot; </p></div><p><b>identifier</b>: id:\u00a0O3J8G9O825\u00a0(use:\u00a0OFFICIAL)</p><p><b>type</b>: interaction</p><p><b>subject</b>: </p><ul><li><a href=\"#MedicinalProductDefinition_mp025mg\">See above (MedicinalProductDefinition/mp025mg)</a></li><li><a href=\"#MedicinalProductDefinition_mp1mg\">See above (MedicinalProductDefinition/mp1mg)</a></li></ul><blockquote><p><b>interaction</b></p><h3>Interactants</h3><table class=\"grid\"><tr><td style=\"display: none\">-</td><td><b>Item[x]</b></td></tr><tr><td style=\"display: none\">*</td><td>ritonavir <span style=\"background: LightGoldenRodYellow; margin: 4px; border: 1px solid khaki\"> (beta#O3J8G9O825)</span></td></tr></table></blockquote></div>"
      },
      "identifier" : [{
        "use" : "official",
        "system" : "https://gsrs.ncats.nih.gov/ginas/app/beta",
        "value" : "O3J8G9O825"
      }],
      "type" : "interaction",
      "subject" : [{
        "reference" : "MedicinalProductDefinition/mp025mg"
      },
      {
        "reference" : "MedicinalProductDefinition/mp1mg"
      }],
      "interaction" : {
        "interactant" : [{
          "itemCodeableConcept" : {
            "coding" : [{
              "system" : "https://gsrs.ncats.nih.gov/ginas/app/beta",
              "code" : "O3J8G9O825",
              "display" : "ritonavir"
            }]
          }
        }]
      }
    }
  },
  {
    "fullUrl" : "http://hl7.eu/fhir/ig/gravitate-health/ClinicalUseDefinition/374f27ff-35f8-4e01-8fa5-53aafc8b48d6",
    "resource" : {
      "resourceType" : "ClinicalUseDefinition",
      "id" : "374f27ff-35f8-4e01-8fa5-53aafc8b48d6",
      "text" : {
        "status" : "generated",
        "div" : "<div xmlns=\"http://www.w3.org/1999/xhtml\"><p><b>Generated Narrative: ClinicalUseDefinition</b><a name=\"374f27ff-35f8-4e01-8fa5-53aafc8b48d6\"> </a></p><div style=\"display: inline-block; background-color: #d9e0e7; padding: 6px; margin: 4px; border: 1px solid #8da1b4; border-radius: 5px; line-height: 60%\"><p style=\"margin-bottom: 0px\">Resource ClinicalUseDefinition &quot;374f27ff-35f8-4e01-8fa5-53aafc8b48d6&quot; </p></div><p><b>identifier</b>: id:\u00a0L3JE09KZ2F\u00a0(use:\u00a0OFFICIAL)</p><p><b>type</b>: interaction</p><p><b>subject</b>: </p><ul><li><a href=\"#MedicinalProductDefinition_mp025mg\">See above (MedicinalProductDefinition/mp025mg)</a></li><li><a href=\"#MedicinalProductDefinition_mp1mg\">See above (MedicinalProductDefinition/mp1mg)</a></li></ul><blockquote><p><b>interaction</b></p><h3>Interactants</h3><table class=\"grid\"><tr><td style=\"display: none\">-</td><td><b>Item[x]</b></td></tr><tr><td style=\"display: none\">*</td><td>saquinavir <span style=\"background: LightGoldenRodYellow; margin: 4px; border: 1px solid khaki\"> (beta#L3JE09KZ2F)</span></td></tr></table></blockquote></div>"
      },
      "identifier" : [{
        "use" : "official",
        "system" : "https://gsrs.ncats.nih.gov/ginas/app/beta",
        "value" : "L3JE09KZ2F"
      }],
      "type" : "interaction",
      "subject" : [{
        "reference" : "MedicinalProductDefinition/mp025mg"
      },
      {
        "reference" : "MedicinalProductDefinition/mp1mg"
      }],
      "interaction" : {
        "interactant" : [{
          "itemCodeableConcept" : {
            "coding" : [{
              "system" : "https://gsrs.ncats.nih.gov/ginas/app/beta",
              "code" : "L3JE09KZ2F",
              "display" : "saquinavir"
            }]
          }
        }]
      }
    }
  },
  {
    "fullUrl" : "http://hl7.eu/fhir/ig/gravitate-health/ClinicalUseDefinition/e416132b-4b3c-4aee-860f-604fa409ddc1",
    "resource" : {
      "resourceType" : "ClinicalUseDefinition",
      "id" : "e416132b-4b3c-4aee-860f-604fa409ddc1",
      "text" : {
        "status" : "generated",
        "div" : "<div xmlns=\"http://www.w3.org/1999/xhtml\"><p><b>Generated Narrative: ClinicalUseDefinition</b><a name=\"e416132b-4b3c-4aee-860f-604fa409ddc1\"> </a></p><div style=\"display: inline-block; background-color: #d9e0e7; padding: 6px; margin: 4px; border: 1px solid #8da1b4; border-radius: 5px; line-height: 60%\"><p style=\"margin-bottom: 0px\">Resource ClinicalUseDefinition &quot;e416132b-4b3c-4aee-860f-604fa409ddc1&quot; </p></div><p><b>identifier</b>: id:\u00a0655M5O3W0U\u00a0(use:\u00a0OFFICIAL)</p><p><b>type</b>: interaction</p><p><b>subject</b>: </p><ul><li><a href=\"#MedicinalProductDefinition_mp025mg\">See above (MedicinalProductDefinition/mp025mg)</a></li><li><a href=\"#MedicinalProductDefinition_mp1mg\">See above (MedicinalProductDefinition/mp1mg)</a></li></ul><blockquote><p><b>interaction</b></p><h3>Interactants</h3><table class=\"grid\"><tr><td style=\"display: none\">-</td><td><b>Item[x]</b></td></tr><tr><td style=\"display: none\">*</td><td>telaprevir <span style=\"background: LightGoldenRodYellow; margin: 4px; border: 1px solid khaki\"> (beta#655M5O3W0U)</span></td></tr></table></blockquote></div>"
      },
      "identifier" : [{
        "use" : "official",
        "system" : "https://gsrs.ncats.nih.gov/ginas/app/beta",
        "value" : "655M5O3W0U"
      }],
      "type" : "interaction",
      "subject" : [{
        "reference" : "MedicinalProductDefinition/mp025mg"
      },
      {
        "reference" : "MedicinalProductDefinition/mp1mg"
      }],
      "interaction" : {
        "interactant" : [{
          "itemCodeableConcept" : {
            "coding" : [{
              "system" : "https://gsrs.ncats.nih.gov/ginas/app/beta",
              "code" : "655M5O3W0U",
              "display" : "telaprevir"
            }]
          }
        }]
      }
    }
  },
  {
    "fullUrl" : "http://hl7.eu/fhir/ig/gravitate-health/ClinicalUseDefinition/f05bbecb-ba90-4d52-ae05-b13502954530",
    "resource" : {
      "resourceType" : "ClinicalUseDefinition",
      "id" : "f05bbecb-ba90-4d52-ae05-b13502954530",
      "text" : {
        "status" : "generated",
        "div" : "<div xmlns=\"http://www.w3.org/1999/xhtml\"><p><b>Generated Narrative: ClinicalUseDefinition</b><a name=\"f05bbecb-ba90-4d52-ae05-b13502954530\"> </a></p><div style=\"display: inline-block; background-color: #d9e0e7; padding: 6px; margin: 4px; border: 1px solid #8da1b4; border-radius: 5px; line-height: 60%\"><p style=\"margin-bottom: 0px\">Resource ClinicalUseDefinition &quot;f05bbecb-ba90-4d52-ae05-b13502954530&quot; </p></div><p><b>identifier</b>: id:\u00a0ZZT404XD09\u00a0(use:\u00a0OFFICIAL)</p><p><b>type</b>: interaction</p><p><b>subject</b>: </p><ul><li><a href=\"#MedicinalProductDefinition_mp025mg\">See above (MedicinalProductDefinition/mp025mg)</a></li><li><a href=\"#MedicinalProductDefinition_mp1mg\">See above (MedicinalProductDefinition/mp1mg)</a></li></ul><blockquote><p><b>interaction</b></p><h3>Interactants</h3><table class=\"grid\"><tr><td style=\"display: none\">-</td><td><b>Item[x]</b></td></tr><tr><td style=\"display: none\">*</td><td>tipranavir <span style=\"background: LightGoldenRodYellow; margin: 4px; border: 1px solid khaki\"> (beta#ZZT404XD09)</span></td></tr></table></blockquote></div>"
      },
      "identifier" : [{
        "use" : "official",
        "system" : "https://gsrs.ncats.nih.gov/ginas/app/beta",
        "value" : "ZZT404XD09"
      }],
      "type" : "interaction",
      "subject" : [{
        "reference" : "MedicinalProductDefinition/mp025mg"
      },
      {
        "reference" : "MedicinalProductDefinition/mp1mg"
      }],
      "interaction" : {
        "interactant" : [{
          "itemCodeableConcept" : {
            "coding" : [{
              "system" : "https://gsrs.ncats.nih.gov/ginas/app/beta",
              "code" : "ZZT404XD09",
              "display" : "tipranavir"
            }]
          }
        }]
      }
    }
  },
  {
    "fullUrl" : "http://hl7.eu/fhir/ig/gravitate-health/ClinicalUseDefinition/f35aa761-20e7-4e66-9ac6-2c4ab3d42507",
    "resource" : {
      "resourceType" : "ClinicalUseDefinition",
      "id" : "f35aa761-20e7-4e66-9ac6-2c4ab3d42507",
      "text" : {
        "status" : "generated",
        "div" : "<div xmlns=\"http://www.w3.org/1999/xhtml\"><p><b>Generated Narrative: ClinicalUseDefinition</b><a name=\"f35aa761-20e7-4e66-9ac6-2c4ab3d42507\"> </a></p><div style=\"display: inline-block; background-color: #d9e0e7; padding: 6px; margin: 4px; border: 1px solid #8da1b4; border-radius: 5px; line-height: 60%\"><p style=\"margin-bottom: 0px\">Resource ClinicalUseDefinition &quot;f35aa761-20e7-4e66-9ac6-2c4ab3d42507&quot; </p></div><p><b>identifier</b>: id:\u00a083HN0GTJ6D\u00a0(use:\u00a0OFFICIAL)</p><p><b>type</b>: interaction</p><p><b>subject</b>: </p><ul><li><a href=\"#MedicinalProductDefinition_mp025mg\">See above (MedicinalProductDefinition/mp025mg)</a></li><li><a href=\"#MedicinalProductDefinition_mp1mg\">See above (MedicinalProductDefinition/mp1mg)</a></li></ul><blockquote><p><b>interaction</b></p><h3>Interactants</h3><table class=\"grid\"><tr><td style=\"display: none\">-</td><td><b>Item[x]</b></td></tr><tr><td style=\"display: none\">*</td><td>Ciclosporin <span style=\"background: LightGoldenRodYellow; margin: 4px; border: 1px solid khaki\"> (beta#83HN0GTJ6D)</span></td></tr></table></blockquote></div>"
      },
      "identifier" : [{
        "use" : "official",
        "system" : "https://gsrs.ncats.nih.gov/ginas/app/beta",
        "value" : "83HN0GTJ6D"
      }],
      "type" : "interaction",
      "subject" : [{
        "reference" : "MedicinalProductDefinition/mp025mg"
      },
      {
        "reference" : "MedicinalProductDefinition/mp1mg"
      }],
      "interaction" : {
        "interactant" : [{
          "itemCodeableConcept" : {
            "coding" : [{
              "system" : "https://gsrs.ncats.nih.gov/ginas/app/beta",
              "code" : "83HN0GTJ6D",
              "display" : "Ciclosporin"
            }]
          }
        }]
      }
    }
  },
  {
    "fullUrl" : "http://hl7.eu/fhir/ig/gravitate-health/ClinicalUseDefinition/5c6da0df-7747-490c-8ae4-93d8883b059b",
    "resource" : {
      "resourceType" : "ClinicalUseDefinition",
      "id" : "5c6da0df-7747-490c-8ae4-93d8883b059b",
      "text" : {
        "status" : "generated",
        "div" : "<div xmlns=\"http://www.w3.org/1999/xhtml\"><p><b>Generated Narrative: ClinicalUseDefinition</b><a name=\"5c6da0df-7747-490c-8ae4-93d8883b059b\"> </a></p><div style=\"display: inline-block; background-color: #d9e0e7; padding: 6px; margin: 4px; border: 1px solid #8da1b4; border-radius: 5px; line-height: 60%\"><p style=\"margin-bottom: 0px\">Resource ClinicalUseDefinition &quot;5c6da0df-7747-490c-8ae4-93d8883b059b&quot; </p></div><p><b>identifier</b>: id:\u00a00VUA21238F\u00a0(use:\u00a0OFFICIAL)</p><p><b>type</b>: interaction</p><p><b>subject</b>: </p><ul><li><a href=\"#MedicinalProductDefinition_mp025mg\">See above (MedicinalProductDefinition/mp025mg)</a></li><li><a href=\"#MedicinalProductDefinition_mp1mg\">See above (MedicinalProductDefinition/mp1mg)</a></li></ul><blockquote><p><b>interaction</b></p><h3>Interactants</h3><table class=\"grid\"><tr><td style=\"display: none\">-</td><td><b>Item[x]</b></td></tr><tr><td style=\"display: none\">*</td><td>Lapatinib <span style=\"background: LightGoldenRodYellow; margin: 4px; border: 1px solid khaki\"> (beta#0VUA21238F)</span></td></tr></table></blockquote></div>"
      },
      "identifier" : [{
        "use" : "official",
        "system" : "https://gsrs.ncats.nih.gov/ginas/app/beta",
        "value" : "0VUA21238F"
      }],
      "type" : "interaction",
      "subject" : [{
        "reference" : "MedicinalProductDefinition/mp025mg"
      },
      {
        "reference" : "MedicinalProductDefinition/mp1mg"
      }],
      "interaction" : {
        "interactant" : [{
          "itemCodeableConcept" : {
            "coding" : [{
              "system" : "https://gsrs.ncats.nih.gov/ginas/app/beta",
              "code" : "0VUA21238F",
              "display" : "Lapatinib"
            }]
          }
        }]
      }
    }
  },
  {
    "fullUrl" : "http://hl7.eu/fhir/ig/gravitate-health/ClinicalUseDefinition/36fe191e-1b9c-11ee-be56-0242ac120002",
    "resource" : {
      "resourceType" : "ClinicalUseDefinition",
      "id" : "36fe191e-1b9c-11ee-be56-0242ac120002",
      "text" : {
        "status" : "generated",
        "div" : "<div xmlns=\"http://www.w3.org/1999/xhtml\"><p><b>Generated Narrative: ClinicalUseDefinition</b><a name=\"36fe191e-1b9c-11ee-be56-0242ac120002\"> </a></p><div style=\"display: inline-block; background-color: #d9e0e7; padding: 6px; margin: 4px; border: 1px solid #8da1b4; border-radius: 5px; line-height: 60%\"><p style=\"margin-bottom: 0px\">Resource ClinicalUseDefinition &quot;36fe191e-1b9c-11ee-be56-0242ac120002&quot; </p></div><p><b>identifier</b>: id:\u00a0IT942ZTH98\u00a0(use:\u00a0OFFICIAL)</p><p><b>type</b>: interaction</p><p><b>subject</b>: </p><ul><li><a href=\"#MedicinalProductDefinition_mp025mg\">See above (MedicinalProductDefinition/mp025mg)</a></li><li><a href=\"#MedicinalProductDefinition_mp1mg\">See above (MedicinalProductDefinition/mp1mg)</a></li></ul><blockquote><p><b>interaction</b></p><h3>Interactants</h3><table class=\"grid\"><tr><td style=\"display: none\">-</td><td><b>Item[x]</b></td></tr><tr><td style=\"display: none\">*</td><td>Curcumin <span style=\"background: LightGoldenRodYellow; margin: 4px; border: 1px solid khaki\"> (beta#IT942ZTH98)</span></td></tr></table></blockquote></div>"
      },
      "identifier" : [{
        "use" : "official",
        "system" : "https://gsrs.ncats.nih.gov/ginas/app/beta",
        "value" : "IT942ZTH98"
      }],
      "type" : "interaction",
      "subject" : [{
        "reference" : "MedicinalProductDefinition/mp025mg"
      },
      {
        "reference" : "MedicinalProductDefinition/mp1mg"
      }],
      "interaction" : {
        "interactant" : [{
          "itemCodeableConcept" : {
            "coding" : [{
              "system" : "https://gsrs.ncats.nih.gov/ginas/app/beta",
              "code" : "IT942ZTH98",
              "display" : "Curcumin"
            }]
          }
        }]
      }
    }
  },
  {
    "fullUrl" : "http://hl7.eu/fhir/ig/gravitate-health/ClinicalUseDefinition/c579a16e-deaf-47b7-a9ba-19b0f2396e0f",
    "resource" : {
      "resourceType" : "ClinicalUseDefinition",
      "id" : "c579a16e-deaf-47b7-a9ba-19b0f2396e0f",
      "text" : {
        "status" : "generated",
        "div" : "<div xmlns=\"http://www.w3.org/1999/xhtml\"><p><b>Generated Narrative: ClinicalUseDefinition</b><a name=\"c579a16e-deaf-47b7-a9ba-19b0f2396e0f\"> </a></p><div style=\"display: inline-block; background-color: #d9e0e7; padding: 6px; margin: 4px; border: 1px solid #8da1b4; border-radius: 5px; line-height: 60%\"><p style=\"margin-bottom: 0px\">Resource ClinicalUseDefinition &quot;c579a16e-deaf-47b7-a9ba-19b0f2396e0f&quot; </p></div><p><b>identifier</b>: id:\u00a033CM23913M\u00a0(use:\u00a0OFFICIAL)</p><p><b>type</b>: interaction</p><p><b>subject</b>: </p><ul><li><a href=\"#MedicinalProductDefinition_mp025mg\">See above (MedicinalProductDefinition/mp025mg)</a></li><li><a href=\"#MedicinalProductDefinition_mp1mg\">See above (MedicinalProductDefinition/mp1mg)</a></li></ul><blockquote><p><b>interaction</b></p><h3>Interactants</h3><table class=\"grid\"><tr><td style=\"display: none\">-</td><td><b>Item[x]</b></td></tr><tr><td style=\"display: none\">*</td><td>Carbamazepine <span style=\"background: LightGoldenRodYellow; margin: 4px; border: 1px solid khaki\"> (beta#33CM23913M)</span></td></tr></table></blockquote></div>"
      },
      "identifier" : [{
        "use" : "official",
        "system" : "https://gsrs.ncats.nih.gov/ginas/app/beta",
        "value" : "33CM23913M"
      }],
      "type" : "interaction",
      "subject" : [{
        "reference" : "MedicinalProductDefinition/mp025mg"
      },
      {
        "reference" : "MedicinalProductDefinition/mp1mg"
      }],
      "interaction" : {
        "interactant" : [{
          "itemCodeableConcept" : {
            "coding" : [{
              "system" : "https://gsrs.ncats.nih.gov/ginas/app/beta",
              "code" : "33CM23913M",
              "display" : "Carbamazepine"
            }]
          }
        }]
      }
    }
  },
  {
    "fullUrl" : "http://hl7.eu/fhir/ig/gravitate-health/ClinicalUseDefinition/323b0573-7a65-4747-a2d4-0077092b1845",
    "resource" : {
      "resourceType" : "ClinicalUseDefinition",
      "id" : "323b0573-7a65-4747-a2d4-0077092b1845",
      "text" : {
        "status" : "generated",
        "div" : "<div xmlns=\"http://www.w3.org/1999/xhtml\"><p><b>Generated Narrative: ClinicalUseDefinition</b><a name=\"323b0573-7a65-4747-a2d4-0077092b1845\"> </a></p><div style=\"display: inline-block; background-color: #d9e0e7; padding: 6px; margin: 4px; border: 1px solid #8da1b4; border-radius: 5px; line-height: 60%\"><p style=\"margin-bottom: 0px\">Resource ClinicalUseDefinition &quot;323b0573-7a65-4747-a2d4-0077092b1845&quot; </p></div><p><b>identifier</b>: id:\u00a06158TKW0C5\u00a0(use:\u00a0OFFICIAL)</p><p><b>type</b>: interaction</p><p><b>subject</b>: </p><ul><li><a href=\"#MedicinalProductDefinition_mp025mg\">See above (MedicinalProductDefinition/mp025mg)</a></li><li><a href=\"#MedicinalProductDefinition_mp1mg\">See above (MedicinalProductDefinition/mp1mg)</a></li></ul><blockquote><p><b>interaction</b></p><h3>Interactants</h3><table class=\"grid\"><tr><td style=\"display: none\">-</td><td><b>Item[x]</b></td></tr><tr><td style=\"display: none\">*</td><td>phenytoin <span style=\"background: LightGoldenRodYellow; margin: 4px; border: 1px solid khaki\"> (beta#6158TKW0C5)</span></td></tr></table></blockquote></div>"
      },
      "identifier" : [{
        "use" : "official",
        "system" : "https://gsrs.ncats.nih.gov/ginas/app/beta",
        "value" : "6158TKW0C5"
      }],
      "type" : "interaction",
      "subject" : [{
        "reference" : "MedicinalProductDefinition/mp025mg"
      },
      {
        "reference" : "MedicinalProductDefinition/mp1mg"
      }],
      "interaction" : {
        "interactant" : [{
          "itemCodeableConcept" : {
            "coding" : [{
              "system" : "https://gsrs.ncats.nih.gov/ginas/app/beta",
              "code" : "6158TKW0C5",
              "display" : "phenytoin"
            }]
          }
        }]
      }
    }
  },
  {
    "fullUrl" : "http://hl7.eu/fhir/ig/gravitate-health/ClinicalUseDefinition/e66ad89e-0f85-48f0-833f-dbf95ea270af",
    "resource" : {
      "resourceType" : "ClinicalUseDefinition",
      "id" : "e66ad89e-0f85-48f0-833f-dbf95ea270af",
      "text" : {
        "status" : "generated",
        "div" : "<div xmlns=\"http://www.w3.org/1999/xhtml\"><p><b>Generated Narrative: ClinicalUseDefinition</b><a name=\"e66ad89e-0f85-48f0-833f-dbf95ea270af\"> </a></p><div style=\"display: inline-block; background-color: #d9e0e7; padding: 6px; margin: 4px; border: 1px solid #8da1b4; border-radius: 5px; line-height: 60%\"><p style=\"margin-bottom: 0px\">Resource ClinicalUseDefinition &quot;e66ad89e-0f85-48f0-833f-dbf95ea270af&quot; </p></div><p><b>identifier</b>: id:\u00a0UFH8805FKA\u00a0(use:\u00a0OFFICIAL)</p><p><b>type</b>: interaction</p><p><b>subject</b>: </p><ul><li><a href=\"#MedicinalProductDefinition_mp025mg\">See above (MedicinalProductDefinition/mp025mg)</a></li><li><a href=\"#MedicinalProductDefinition_mp1mg\">See above (MedicinalProductDefinition/mp1mg)</a></li></ul><blockquote><p><b>interaction</b></p><h3>Interactants</h3><table class=\"grid\"><tr><td style=\"display: none\">-</td><td><b>Item[x]</b></td></tr><tr><td style=\"display: none\">*</td><td>St. John’s wort (Hypericum perforatum) <span style=\"background: LightGoldenRodYellow; margin: 4px; border: 1px solid khaki\"> (beta#UFH8805FKA)</span></td></tr></table></blockquote></div>"
      },
      "identifier" : [{
        "use" : "official",
        "system" : "https://gsrs.ncats.nih.gov/ginas/app/beta",
        "value" : "UFH8805FKA"
      }],
      "type" : "interaction",
      "subject" : [{
        "reference" : "MedicinalProductDefinition/mp025mg"
      },
      {
        "reference" : "MedicinalProductDefinition/mp1mg"
      }],
      "interaction" : {
        "interactant" : [{
          "itemCodeableConcept" : {
            "coding" : [{
              "system" : "https://gsrs.ncats.nih.gov/ginas/app/beta",
              "code" : "UFH8805FKA",
              "display" : "St. John’s wort (Hypericum perforatum)"
            }]
          }
        }]
      }
    }
  },
  {
    "fullUrl" : "http://hl7.eu/fhir/ig/gravitate-health/ClinicalUseDefinition/976b30de-f1a2-4d9c-9351-c4087206cbf1",
    "resource" : {
      "resourceType" : "ClinicalUseDefinition",
      "id" : "976b30de-f1a2-4d9c-9351-c4087206cbf1",
      "text" : {
        "status" : "generated",
        "div" : "<div xmlns=\"http://www.w3.org/1999/xhtml\"><p><b>Generated Narrative: ClinicalUseDefinition</b><a name=\"976b30de-f1a2-4d9c-9351-c4087206cbf1\"> </a></p><div style=\"display: inline-block; background-color: #d9e0e7; padding: 6px; margin: 4px; border: 1px solid #8da1b4; border-radius: 5px; line-height: 60%\"><p style=\"margin-bottom: 0px\">Resource ClinicalUseDefinition &quot;976b30de-f1a2-4d9c-9351-c4087206cbf1&quot; </p></div><p><b>identifier</b>: id:\u00a0856YO1Z64F\u00a0(use:\u00a0OFFICIAL)</p><p><b>type</b>: interaction</p><p><b>subject</b>: </p><ul><li><a href=\"#MedicinalProductDefinition_mp025mg\">See above (MedicinalProductDefinition/mp025mg)</a></li><li><a href=\"#MedicinalProductDefinition_mp1mg\">See above (MedicinalProductDefinition/mp1mg)</a></li></ul><blockquote><p><b>interaction</b></p><h3>Interactants</h3><table class=\"grid\"><tr><td style=\"display: none\">-</td><td><b>Item[x]</b></td></tr><tr><td style=\"display: none\">*</td><td>turmeric root <span style=\"background: LightGoldenRodYellow; margin: 4px; border: 1px solid khaki\"> (beta#856YO1Z64F)</span></td></tr></table></blockquote></div>"
      },
      "identifier" : [{
        "use" : "official",
        "system" : "https://gsrs.ncats.nih.gov/ginas/app/beta",
        "value" : "856YO1Z64F"
      }],
      "type" : "interaction",
      "subject" : [{
        "reference" : "MedicinalProductDefinition/mp025mg"
      },
      {
        "reference" : "MedicinalProductDefinition/mp1mg"
      }],
      "interaction" : {
        "interactant" : [{
          "itemCodeableConcept" : {
            "coding" : [{
              "system" : "https://gsrs.ncats.nih.gov/ginas/app/beta",
              "code" : "856YO1Z64F",
              "display" : "turmeric root"
            }]
          }
        }]
      }
    }
  }]
}