<?xml version="1.0" encoding="UTF-8"?>

<Bundle xmlns="http://hl7.org/fhir">
  <id value="bundlepackageleaflet-87263ad77afb6e39aa59e421ea0b6b37"/>
  <meta>
    <profile value="http://hl7.org/fhir/uv/emedicinal-product-info/StructureDefinition/Bundle-uv-epi"/>
  </meta>
  <language value="en"/>
  <identifier>
    <system value="https://www.gravitatehealth.eu/sid/doc"/>
    <value value="xx"/>
  </identifier>
  <type value="document"/>
  <timestamp value="2023-06-27T10:09:22Z"/>
  <entry>
    <fullUrl value="http://hl7.eu/fhir/ig/gravitate-health/Composition/compositionb3a8d58c709a2281d8ad2a590fe81663"/>
    <resource>
      <Composition>
        <id value="compositionb3a8d58c709a2281d8ad2a590fe81663"/>
        <meta>
          <profile value="http://hl7.org/fhir/uv/emedicinal-product-info/StructureDefinition/Composition-uv-epi"/>
        </meta>
        <language value="es"/>
        <text>
          <status value="generated"/><div xmlns="http://www.w3.org/1999/xhtml" xml:lang="es" lang="es"><p><b>Generated Narrative: Composition</b><a name="compositionb3a8d58c709a2281d8ad2a590fe81663"> </a></p><div style="display: inline-block; background-color: #d9e0e7; padding: 6px; margin: 4px; border: 1px solid #8da1b4; border-radius: 5px; line-height: 60%"><p style="margin-bottom: 0px">Resource Composition &quot;compositionb3a8d58c709a2281d8ad2a590fe81663&quot;  (Language &quot;es&quot;) </p><p style="margin-bottom: 0px">Profile: <a href="https://build.fhir.org/ig/HL7/emedicinal-product-info//StructureDefinition-Composition-uv-epi.html">Composition (ePI)</a></p></div><p><b>identifier</b>: id: 5cb2d91401c7ada1c8aaab5577ca247d</p><p><b>status</b>: final</p><p><b>type</b>: Package Leaflet <span style="background: LightGoldenRodYellow; margin: 4px; border: 1px solid khaki"> (#100000155538)</span></p><p><b>category</b>: Raw <span style="background: LightGoldenRodYellow; margin: 4px; border: 1px solid khaki"> (<a href="CodeSystem-epicategory-cs.html">Category of EPI</a>#R)</span></p><p><b>date</b>: 2022-02-16 13:28:17+0000</p><p><b>author</b>: <a href="#Organization_mah-6ade044addd6563de0baefebb1cceb8e">See above (Organization/mah-6ade044addd6563de0baefebb1cceb8e)</a></p><p><b>title</b>: TEST PURPOSES ONLY - Pentasa Slow Release Tablets 1g</p><h3>Attesters</h3><table class="grid"><tr><td style="display: none">-</td><td><b>Mode</b></td><td><b>Time</b></td></tr><tr><td style="display: none">*</td><td>Official <span style="background: LightGoldenRodYellow; margin: 4px; border: 1px solid khaki"> (<a href="http://hl7.org/fhir/R5/codesystem-composition-attestation-mode.html">Composition Attestation Mode</a>#official)</span></td><td>2022-02-16 13:28:17+0000</td></tr></table></div>
        </text>
        <identifier>
          <system value="https://spor.ema.europa.eu/rmswi/"/>
          <value value="5cb2d91401c7ada1c8aaab5577ca247d"/>
        </identifier>
        <status value="final"/>
        <type>
          <coding>
            <system value="https://spor.ema.europa.eu/rmswi/"/>
            <code value="100000155538"/>
          </coding>
          <text value="Package Leaflet"/>
        </type>
        <category>
          <coding>
            <system value="http://hl7.eu/fhir/ig/gravitate-health/CodeSystem/epicategory-cs"/>
            <code value="R"/>
            <display value="Raw"/>
          </coding>
        </category>
        <subject>
          <reference value="MedicinalProductDefinition/mpb3a8d58c709a2281d8ad2a590fe81663"/>
        </subject>
        <date value="2022-02-16T13:28:17Z"/>
        <author>
          <reference value="Organization/mah-6ade044addd6563de0baefebb1cceb8e"/>
        </author>
        <title value="TEST PURPOSES ONLY - Pentasa Slow Release Tablets 1g"/>
        <attester>
          <mode>
            <coding>
              <system value="http://hl7.org/fhir/composition-attestation-mode"/>
              <code value="official"/>
            </coding>
          </mode>
          <time value="2022-02-16T13:28:17Z"/>
        </attester>
        <section>
          <title value="B. Package Leaflet"/>
          <code>
            <coding>
              <system value="https://spor.ema.europa.eu/rmswi/"/>
              <code value="100000155538"/>
            </coding>
            <text value="B. PACKAGE LEAFLET"/>
          </code>
          <text>
            <status value="additional"/><div xmlns="http://www.w3.org/1999/xhtml">unavailable</div>
          </text>
          <emptyReason>
            <coding>
              <system value="http://terminology.hl7.org/CodeSystem/list-empty-reason"/>
              <code value="unavailable"/>
            </coding>
          </emptyReason>
          <section>
            <title value="Package leaflet: Information for the user"/>
            <code>
              <coding>
                <system value="https://spor.ema.europa.eu/rmswi/"/>
                <code value="100000155538"/>
              </coding>
              <text value="Package leaflet: Information for the user"/>
            </code>
            <text>
              <status value="additional"/><div xmlns="http://www.w3.org/1999/xhtml"><p>Lea todo el prospecto detenidamente antes de empezar a tomareste medicamento, porque contiene información importante para usted.</p><p>Conserve este prospecto, ya que puede tener que volver a leerlo.</p><p>Si tiene alguna duda, consulte a su médico o farmacéutico.</p><p>Este medicamento se le ha recetado solamente a usted y no debe dárselo a otras personas aunque presenten los mismos síntomas de enfermedad que usted, ya que puede perjudicarles.</p><p>Si experimentaefectos adversos consulte a su médico o farmacéutico,incluso si se trata de efectos adversos que no aparecen en este prospecto. Ver sección 4.0</p></div>
            </text>
          </section>
          <section>
            <title value="What is in this leaflet"/>
            <code>
              <coding>
                <system value="https://spor.ema.europa.eu/rmswi/"/>
                <code value="100000155538"/>
              </coding>
              <text value="What is in this leaflet"/>
            </code>
            <text>
              <status value="additional"/><div xmlns="http://www.w3.org/1999/xhtml"><p><strong>Contenido del prospecto</strong></p><ol><li><p>Qué es Pentasa comprimidos y para qué se utiliza</p></li><li><p>Qué necesita saber antes de empezar atomarPentasa comprimidos</p></li><li><p>Cómo tomar Pentasa comprimidos</p></li><li><p>Posibles efectos adversos</p></li><li><p>Conservación de Pentasa comprimidos</p></li><li><p>Contenido del envase e información adicional</p></li></ol></div>
            </text>
          </section>
          <section>
            <title value="1. What Pentasa Slow Release Tablets 1g is and what it is used for"/>
            <code>
              <coding>
                <system value="https://spor.ema.europa.eu/rmswi/"/>
                <code value="100000155538"/>
              </coding>
              <text value="1. What Pentasa Slow Release Tablets 1g is and what it is used for"/>
            </code>
            <text>
              <status value="additional"/><div xmlns="http://www.w3.org/1999/xhtml"><p>Pentasa comprimidos está indicado para ayudarle a mantenerle libre de nuevos brotes de colitis ulcerosa.</p><p>La colitis ulcerosa es una enfermedad inflamatoria intestinal en la que el revestimiento del intestino está inflamado y desarrolla muchas roturas diminutas en su superficie (úlceras) que pueden sangrar.</p><p>Pentasa contiene el principio activo mesalazina, que pertenece al grupo de medicamentos llamados antiinflamatorios intestinales que ayudan a reducir la inflamación y los síntomas dolorosos.</p></div>
            </text>
          </section>
          <section>
            <title value="2. What you need to know before you take Pentasa Slow Release Tablets 1g"/>
            <code>
              <coding>
                <system value="https://spor.ema.europa.eu/rmswi/"/>
                <code value="100000155538"/>
              </coding>
              <text value="2. What you need to know before you take Pentasa Slow Release Tablets 1g"/>
            </code>
            <text>
              <status value="additional"/><div xmlns="http://www.w3.org/1999/xhtml"><p><strong>No tome Pentasa comprimidos:</strong></p><ul><li>si es alérgico al principio activoo a cualquiera de los demás componentes de este medicamento (incluidos en la sección 6).</li><li>si es alérgico a salicilatos por ejemplo aspirina.</li><li>si tiene problemas graves de riñón y/o hígado.</li></ul><p><strong>Advertencias y precauciones</strong></p><p>Consulte a su médico o farmacéutico antes de empezar a tomar este medicamento:</p><ul><li>si es alérgico a la sulfasalazina (riesgo de alergias a salicilatos)</li><li>si tiene actualmente o ha tenido anteriormente deterioro de la función del hígado o riñón</li><li>si tiene una enfermedad que pueda hacerle propenso a sufrir hemorragias</li><li>si está con un tratamiento que pueda afectar a la función renal por ejemplo medicamentosantiinflamatorios no esteroideos (AINEs) como la aspirina</li><li>si tiene problemas respiratorios, en particular asma se deberá interrumpir el tratamiento inmediatamente en caso de calambres, dolor abdominal, fiebre,dolor de cabeza intenso y erupción.</li><li>Pueden producirse cálculos renales con el uso de mesalazina. Los síntomas incluyen dolor en los lados del abdomen y presencia de sangre en la orina. Asegúrese de beber una cantidad suficiente de líquido durante el tratamiento con mesalazina.</li><li>Si ha sufrido alguna vez un exantema cutáneo intenso o descamación de la piel, ampollas o llagas en la boca después de utilizar mesalazina</li></ul><p>Se han observado erupciones cutáneas graves, como síndrome de Stevens-Johnson y necrólisis epidérmica tóxica, con el tratamiento a base de mesalazina. Deje de tomar mesalazina y solicite atención médica inmediatamente si observa alguno de los síntomas relacionados con estas reacciones cutáneas graves descritos en la sección 4.</p><p><strong>Mientras esté en tratamiento con este medicamento, su médico normalmente le realizará análisis de sangre y orina para controlar su función renal, especialmente al inicio del tratamiento.</strong></p><p><strong>Uso en mayores de 65 años:</strong></p><p>Se debe utilizar con cuidado en mayores de 65 años y solamente en pacientes con la función renal normal.</p><p><strong>Niños y adolescentes:</strong></p><p>Existe documentación limitada sobre el efecto en niños (6-18 años). La dosificación será determinada por el médico.</p><p><strong>Uso de Pentasa comprimidos conotros medicamentos:</strong></p><p>Informe a su médico o farmacéutico si está tomando, ha tomado recientemente o podría tener que tomar cualquierotro medicamento.</p><p>Esto es especialmente importante si usted está tomando cualquiera de los siguientes medicamentos:</p><ul><li>azatioprina(usado tras trasplantes o para tratar enfermedades autoinmunes)</li><li>6-mercaptopurina o tioguanina (quimioterápico, usado para tratar la leucemia)</li><li>ciertos medicamentos que inhiban la coagulación de la sangre (medicamentos para la trombosis o para fluidificar su sangre).</li></ul><p><strong>Embarazo, lactancia y fertilidad</strong></p><p>Si está embarazada o en periodo de lactancia, o cree que podría estar embarazada o tiene intención de quedarse embarazada, consulte a su médico o farmacéutico antes de utilizar estemedicamento.</p><p>Existe una experiencia limitada con el uso de mesalazinadurante el embarazo y lactancia.</p><p>Se han observado alteraciones sanguíneas en recién nacidos de madres tratadas con este medicamento. Los recién nacidos pueden desarrollar reacciones alérgicas tras la lactancia, por ejemplo, diarrea. En caso de que el recién nacido presente diarrea, se deberá interrumpir la lactancia.</p><p><em>Fertilidad:</em></p><p>Los datos de mesalazina en animales muestran que no tiene efecto sobre la fertilidad masculina o femenina.</p><p><strong>Conducción y uso de máquinas:</strong></p><p>El tratamiento con Pentasacomprimidos no parece ejercer ninguna influencia en la capacidad de conducir y/o manejar máquinas.</p></div>
            </text>
          </section>
          <section>
            <title value="3. How to take Pentasa Slow Release Tablets 1g"/>
            <code>
              <coding>
                <system value="https://spor.ema.europa.eu/rmswi/"/>
                <code value="100000155538"/>
              </coding>
              <text value="3. How to take Pentasa Slow Release Tablets 1g"/>
            </code>
            <text>
              <status value="additional"/><div xmlns="http://www.w3.org/1999/xhtml"><p>Siga exactamente las instrucciones de administración de este medicamento indicadas por su médico o farmacéutico. En caso de duda, consulte a su médico o farmacéutico.</p><p>La dosis recomendada es:</p><p><em>Adultos: </em>Para ayudarle a mantenerse libre de más brotes de colitis, su médico puede prescribirle generalmente 2 gramos de mesalazina al día, administrado en forma de2 comprimidos una vez al día.</p><p><em>Uso en niños y adolescentes (de edad igual o mayor a 6 años): </em>Para los niños y adolescentes la dosis se calculará por su médico en función del peso corporal. La dosis recomendada en niños y adolescentes con un peso corporal de hasta 40 kg será la mitad de la dosis habitual recomendada en adultos y para aquellos niños y adolescentes con un peso corporal mayor de 40 kg, la dosis será la misma dosis habitual recomendada en adultos.</p><p><strong>Deberá tomar los comprimidos enteros oralmente (por la boca).</strong> Para facilitar la administración se pueden suspender en agua o zumo de naranja, agitarse e ingerirse inmediatamente.</p><p>Si estima que la acción de este medicamento es demasiado fuerte o débil, comuníqueselo a su médico.</p><p><strong>Si tomamás Pentasa comprimidos del que debe</strong></p><p>No se han comunicado casos de sobredosis en humanos, pero si se sospecha una sobredosis inmediatamente debe consultar a su médico o farmacéutico.</p><p>En caso de sobredosis o ingestión accidental, consulte inmediatamente a su médico, farmacéutico o llame al Servicio de Información Toxicológica, teléfono 91-562 04 20 indicando el medicamento y la cantidad tomada.</p><p><strong>Si olvidó tomar Pentasa comprimidos</strong></p><p>No tome una dosis doble para compensar las dosis olvidadas.</p><p><strong>Si interrumpe el tratamiento con Pentasa comprimidos</strong></p><p>Su médico le indicará la duración de su tratamiento con Pentasa comprimidos. No suspenda el tratamiento antes aunque se encuentre mejor ya que los síntomas podrían volver a aparecer si termina el tratamiento demasiado pronto. Siga rigurosamente el tratamiento según las instrucciones de su médico en el tiempo de mantenimiento que establezca.</p><p>Si tiene cualquier otra duda sobre el uso de</p></div>
            </text>
          </section>
          <section>
            <title value="4. Possible side effects"/>
            <code>
              <coding>
                <system value="https://spor.ema.europa.eu/rmswi/"/>
                <code value="100000155538"/>
              </coding>
              <text value="4. Possible side effects"/>
            </code>
            <text>
              <status value="additional"/><div xmlns="http://www.w3.org/1999/xhtml"><p>Al igual que todos los medicamentos, Pentasa comprimidos puede producir efectos adversos, aunque no todas las personas los sufran.</p><p>Se han notificado muy pocos casos de reacción alérgica grave (incluyendo erosiones cutáneas graves que pueden afectar a la piel como como barrera protectora del cuerpo). La reacción alérgica podría dar lugar a la hinchazón de la cara y el cuello y/o dificultad para respirar o tragar (edema de Quincke). Si esto ocurriera contacte con su médico o servicio de urgencias inmediatamente. Deje de tomar mesalazina y solicite ayuda médica inmediatamente si presenta alguno de los siguientes síntomas:</p><ul><li>parches rojizos no elevados, o parches circulares o en forma de moneda en el tórax, con frecuencia con ampollas centrales, desescamación de la piel, úlceras en la boca, garganta, nariz, genitales y ojos. Estas erupciones cutáneas graves van precedidas a menudo de fiebre o síntomas de tipo gripal.</li></ul><p>Los siguientes efectos adversos frecuentes afectan entre 1 y 10 de cada 100 pacientes tratados:</p><ul><li>dolor de cabeza</li><li>diarrea</li><li>náuseas</li><li>dolor abdominal</li><li>vómitos</li><li>erupción cutánea</li><li>flatulencia (gases)</li></ul><p>Los siguientes efectos adversos raros, afectan entre 1 y 10 de cada 10.000 pacientes tratados:</p><ul><li>inflamación de algunas áreas del corazón (miocarditis y pericarditis) que pueden causar dificultad para respirar y dolor de pecho o palpitaciones (latidos del corazón rápidos o irregulares)</li><li>inflamación del páncreas (incluye síntomas de dolor de espalda y/ o estómago) y aumento de la amilasa</li><li>mareos</li><li>mayor sensibilidad de la piel a la luz solar y ultravioleta (fotosensibilidad)</li></ul><p>Los siguientes efectos adversos muy raros, afectan a menos de 1 de 10.000 pacientes tratados:</p><ul><li>eosinofilia (como parte de una reacción alérgica) y trastornos sanguíneos como reducción de los glóbulos rojos (anemia), de los glóbulos blancos (leucopenia), de las plaquetas (trombocitopenia), que pueden aumentar la probabilidad de tener infecciones o hemorragias.</li><li>trastornos del hígado (hepatitis) caracterizado por síntomas que incluyen ictericia (amarillamiento de la piel y/o los ojos) y/ o heces blancas.</li><li>trastornos del riñón (los síntomas incluyen sangre en la orina, cambio de color de la misma, edema (hinchazón debido al aumento de fluidos que puede causar hinchazón de los tobillos y aumento de la tensión arterial (nefritis))</li><li>neuropatía periférica (condición que afecta a los nervios de las manos y los pies incluyendo síntomas de cosquilleo y entumecimiento)</li><li>reacciones alérgicas pulmonares y fibróticas (los síntomas incluyen tos, dificultad para respirar, broncoespasmo, flemas sangrantes y/o excesivas)</li><li>pérdida de pelo (esta es reversible)</li><li>dolor muscular o articular</li><li>inflamación que puede afectar a varias partes del cuerpo como las articulaciones, piel, riñones, corazón, etc (los síntomas incluyen articulaciones doloridas, fatiga, fiebre, sangrado anormal o inexplicable (por ejemplo, sangrado de la nariz), contusión, coloración púrpura de la piel, manchas bajo la piel (incluyendo erosiones cutáneas graves y quemazón grave que pueden afectar a la piel como barrera protectora del cuerpo)) semen con baja concentración de espermatozoides (oligospermia) (ésta es reversible)</li><li>diarrea grave y dolor abdominal debido a una reacción alérgica a este medicamento en el intestino.</li><li>ocasionalmente pueden ocurrir reacciones alérgicas y fiebre</li></ul><p>Frecuencia no conocida (no puede estimarse a partir de los datos disponibles)</p><ul><li>cálculos renales y dolor renal asociado (ver también sección 2)</li></ul><p>Algunas de estas reacciones adversas también pueden atribuirse a la enfermedad en si misma.</p><p><strong>Comunicación de efectos adversos:</strong></p><p>Si experimenta cualquier tipo de efecto adverso, consulte a su médico o farmacéutico, incluso si se trata de posibles efectos adversos que no aparecen en este prospecto. También puede comunicarlos directamente a través del Sistema Español de Farmacovigilancia de Medicamentos de Uso Humano: http;//www.notificaram.es. Mediante la comunicación de efectos adversos usted puede contribuir a proporcionar más información sobre la seguridad de este medicamento.</p></div>
            </text>
          </section>
          <section>
            <title value="5. How to store Pentasa Slow Release Tablets 1g"/>
            <code>
              <coding>
                <system value="https://spor.ema.europa.eu/rmswi/"/>
                <code value="100000155538"/>
              </coding>
              <text value="5. How to store Pentasa Slow Release Tablets 1g"/>
            </code>
            <text>
              <status value="additional"/><div xmlns="http://www.w3.org/1999/xhtml"><p>Mantener este medicamento fuera de la vista y del alcance de los niños.</p><p>No utiliceeste medicamentodespués de la fecha de caducidad que aparece en la caja, después de “CAD”. La fecha de caducidad es el último día del mes que se indica.</p><p>No conservar a una temperatura superior a 25º C. Conservar en el envase original para protegerlo de la luz.</p><p>Los medicamentos no se deben tirar por los desagües ni a la basura. Deposite los envases y los medicamentos que no necesita en el Punto SIGRE de la farmacia. En caso de duda pregunte a su farmacéutico cómo deshacerse de los envases y de los medicamentos que no necesita. De esta forma, ayudará a proteger el medio ambiente.</p></div>
            </text>
          </section>
          <section>
            <title value="6. Contents of the pack and other information"/>
            <code>
              <coding>
                <system value="https://spor.ema.europa.eu/rmswi/"/>
                <code value="100000155538"/>
              </coding>
              <text value="6. Contents of the pack and other information"/>
            </code>
            <text>
              <status value="additional"/><div xmlns="http://www.w3.org/1999/xhtml"><p><b>Composición dePentasa comprimidos</b></p><ul><li>El principio activo es mesalazina. Cada comprimido contiene 1 gramo de mesalazina.</li><li>Los demás componentes son: povidona, etilcelulosa, estearato magnésico, talco, celulosa microcristalina.</li></ul><p><b>Aspecto del producto y contenido del envase</b> Pentasa comprimidos se presenta como comprimidos blanco grisáceos/ marrón pálido,ovalados, moteados y grabados en ambos lados con: PENTASA. Se presenta en blisters de doble aluminio conteniendo un total de 60 comprimidos.</p><p><b>Titular de la autorización de comercialización y responsable de fabricación</b></p><p><b>Titular de la autorización de comercialización:</b>Ferring S.A.U C/ del Arquitecto Sánchez Arcas nº3, 1º 28040 Madrid España.<b>Responsable de la fabricación:</b></p><p>FERRING GmbH Wittland 1124109 Kiel, Alemania.</p><p>Fecha de la última revisión de este prospecto en enero 2021 La información detallada y actualizada de este medicamento está disponible en la página Web de la Agencia Española de Medicamentos y Productos Sanitarios (AEMPS) <a href="http://www.aemps.gob.es/">http://www.aemps.gob.es/</a></p></div>
            </text>
          </section>
        </section>
      </Composition>
    </resource>
  </entry>
  <entry>
    <fullUrl value="http://hl7.eu/fhir/ig/gravitate-health/Ingredient/ingredient-for-pentasa-mesalazine"/>
    <resource>
      <Ingredient>
        <id value="ingredient-for-pentasa-mesalazine"/>
        <meta>
          <profile value="http://hl7.org/fhir/uv/emedicinal-product-info/StructureDefinition/Ingredient-uv-epi"/>
        </meta>
        <text>
          <status value="generated"/><div xmlns="http://www.w3.org/1999/xhtml"><p><b>Generated Narrative: Ingredient</b><a name="ingredient-for-pentasa-mesalazine"> </a></p><div style="display: inline-block; background-color: #d9e0e7; padding: 6px; margin: 4px; border: 1px solid #8da1b4; border-radius: 5px; line-height: 60%"><p style="margin-bottom: 0px">Resource Ingredient &quot;ingredient-for-pentasa-mesalazine&quot; </p><p style="margin-bottom: 0px">Profile: <a href="https://build.fhir.org/ig/HL7/emedicinal-product-info//StructureDefinition-Ingredient-uv-epi.html">Ingredient (ePI)</a></p></div><p><b>identifier</b>: id: 4Q81I59GXC (use: OFFICIAL)</p><p><b>status</b>: active</p><p><b>for</b>: </p><ul><li><a href="#ManufacturedItemDefinition_mid-1a7318638ddbbeb084ef416e717b6fdb">See above (ManufacturedItemDefinition/mid-1a7318638ddbbeb084ef416e717b6fdb)</a></li><li><a href="#MedicinalProductDefinition_mpb3a8d58c709a2281d8ad2a590fe81663">See above (MedicinalProductDefinition/mpb3a8d58c709a2281d8ad2a590fe81663)</a></li><li><a href="#AdministrableProductDefinition_ap-1a7318638ddbbeb084ef416e717b6fdb">See above (AdministrableProductDefinition/ap-1a7318638ddbbeb084ef416e717b6fdb)</a></li></ul><p><b>role</b>: active <span style="background: LightGoldenRodYellow; margin: 4px; border: 1px solid khaki"> (rmswi#72072)</span></p><blockquote><p><b>substance</b></p><h3>Codes</h3><table class="grid"><tr><td style="display: none">-</td><td><b>Concept</b></td></tr><tr><td style="display: none">*</td><td>mesalazine <span style="background: LightGoldenRodYellow; margin: 4px; border: 1px solid khaki"> (beta#4Q81I59GXC)</span></td></tr></table><h3>Strengths</h3><table class="grid"><tr><td style="display: none">-</td><td><b>Presentation[x]</b></td><td><b>Basis</b></td></tr><tr><td style="display: none">*</td><td>1 g<span style="background: LightGoldenRodYellow"> (Details: UCUM code g = 'g')</span></td><td>active ingredient - basis of strength <span style="background: LightGoldenRodYellow; margin: 4px; border: 1px solid khaki"> (<a href="http://terminology.hl7.org/5.3.0/CodeSystem-v3-RoleClass.html">RoleClass</a>#ACTIB)</span></td></tr></table></blockquote></div>
        </text>
        <identifier>
          <use value="official"/>
          <system value="https://gsrs.ncats.nih.gov/ginas/app/beta"/>
          <value value="4Q81I59GXC"/>
        </identifier>
        <status value="active"/>
        <for>
          <reference value="ManufacturedItemDefinition/mid-1a7318638ddbbeb084ef416e717b6fdb"/>
        </for>
        <for>
          <reference value="MedicinalProductDefinition/mpb3a8d58c709a2281d8ad2a590fe81663"/>
        </for>
        <for>
          <reference value="AdministrableProductDefinition/ap-1a7318638ddbbeb084ef416e717b6fdb"/>
        </for>
        <role>
          <coding>
            <system value="https://spor.ema.europa.eu/rmswi"/>
            <code value="72072"/>
            <display value="active"/>
          </coding>
        </role>
        <substance>
          <code>
            <concept>
              <coding>
                <system value="https://gsrs.ncats.nih.gov/ginas/app/beta"/>
                <code value="4Q81I59GXC"/>
                <display value="mesalazine"/>
              </coding>
            </concept>
          </code>
          <strength>
            <presentationQuantity>
              <value value="1"/>
              <system value="http://unitsofmeasure.org"/>
              <code value="g"/>
            </presentationQuantity>
            <basis>
              <coding>
                <system value="http://terminology.hl7.org/CodeSystem/v3-RoleClass"/>
                <code value="ACTIB"/>
                <display value="active ingredient - basis of strength"/>
              </coding>
            </basis>
          </strength>
        </substance>
      </Ingredient>
    </resource>
  </entry>
  <entry>
    <fullUrl value="http://hl7.eu/fhir/ig/gravitate-health/Ingredient/ingredient-for-pentasa-povidone"/>
    <resource>
      <Ingredient>
        <id value="ingredient-for-pentasa-povidone"/>
        <meta>
          <profile value="http://hl7.org/fhir/uv/emedicinal-product-info/StructureDefinition/Ingredient-uv-epi"/>
        </meta>
        <text>
          <status value="generated"/><div xmlns="http://www.w3.org/1999/xhtml"><p><b>Generated Narrative: Ingredient</b><a name="ingredient-for-pentasa-povidone"> </a></p><div style="display: inline-block; background-color: #d9e0e7; padding: 6px; margin: 4px; border: 1px solid #8da1b4; border-radius: 5px; line-height: 60%"><p style="margin-bottom: 0px">Resource Ingredient &quot;ingredient-for-pentasa-povidone&quot; </p><p style="margin-bottom: 0px">Profile: <a href="https://build.fhir.org/ig/HL7/emedicinal-product-info//StructureDefinition-Ingredient-uv-epi.html">Ingredient (ePI)</a></p></div><p><b>identifier</b>: id: FZ989GH94E (use: OFFICIAL)</p><p><b>status</b>: active</p><p><b>for</b>: </p><ul><li><a href="#ManufacturedItemDefinition_mid-1a7318638ddbbeb084ef416e717b6fdb">See above (ManufacturedItemDefinition/mid-1a7318638ddbbeb084ef416e717b6fdb)</a></li><li><a href="#MedicinalProductDefinition_mpb3a8d58c709a2281d8ad2a590fe81663">See above (MedicinalProductDefinition/mpb3a8d58c709a2281d8ad2a590fe81663)</a></li><li><a href="#AdministrableProductDefinition_ap-1a7318638ddbbeb084ef416e717b6fdb">See above (AdministrableProductDefinition/ap-1a7318638ddbbeb084ef416e717b6fdb)</a></li></ul><p><b>role</b>: Excipient <span style="background: LightGoldenRodYellow; margin: 4px; border: 1px solid khaki"> (rmswi#100000072082)</span></p><blockquote><p><b>substance</b></p><h3>Codes</h3><table class="grid"><tr><td style="display: none">-</td><td><b>Concept</b></td></tr><tr><td style="display: none">*</td><td>Povidone <span style="background: LightGoldenRodYellow; margin: 4px; border: 1px solid khaki"> (beta#FZ989GH94E)</span></td></tr></table></blockquote></div>
        </text>
        <identifier>
          <use value="official"/>
          <system value="https://gsrs.ncats.nih.gov/ginas/app/beta"/>
          <value value="FZ989GH94E"/>
        </identifier>
        <status value="active"/>
        <for>
          <reference value="ManufacturedItemDefinition/mid-1a7318638ddbbeb084ef416e717b6fdb"/>
        </for>
        <for>
          <reference value="MedicinalProductDefinition/mpb3a8d58c709a2281d8ad2a590fe81663"/>
        </for>
        <for>
          <reference value="AdministrableProductDefinition/ap-1a7318638ddbbeb084ef416e717b6fdb"/>
        </for>
        <role>
          <coding>
            <system value="https://spor.ema.europa.eu/rmswi"/>
            <code value="100000072082"/>
            <display value="Excipient"/>
          </coding>
        </role>
        <substance>
          <code>
            <concept>
              <coding>
                <system value="https://gsrs.ncats.nih.gov/ginas/app/beta"/>
                <code value="FZ989GH94E"/>
                <display value="Povidone"/>
              </coding>
            </concept>
          </code>
        </substance>
      </Ingredient>
    </resource>
  </entry>
  <entry>
    <fullUrl value="http://hl7.eu/fhir/ig/gravitate-health/Ingredient/ingredient-for-pentasa-ethylcellulose"/>
    <resource>
      <Ingredient>
        <id value="ingredient-for-pentasa-ethylcellulose"/>
        <meta>
          <profile value="http://hl7.org/fhir/uv/emedicinal-product-info/StructureDefinition/Ingredient-uv-epi"/>
        </meta>
        <text>
          <status value="generated"/><div xmlns="http://www.w3.org/1999/xhtml"><p><b>Generated Narrative: Ingredient</b><a name="ingredient-for-pentasa-ethylcellulose"> </a></p><div style="display: inline-block; background-color: #d9e0e7; padding: 6px; margin: 4px; border: 1px solid #8da1b4; border-radius: 5px; line-height: 60%"><p style="margin-bottom: 0px">Resource Ingredient &quot;ingredient-for-pentasa-ethylcellulose&quot; </p><p style="margin-bottom: 0px">Profile: <a href="https://build.fhir.org/ig/HL7/emedicinal-product-info//StructureDefinition-Ingredient-uv-epi.html">Ingredient (ePI)</a></p></div><p><b>identifier</b>: id: 7Z8S9VYZ4B (use: OFFICIAL)</p><p><b>status</b>: active</p><p><b>for</b>: </p><ul><li><a href="#ManufacturedItemDefinition_mid-1a7318638ddbbeb084ef416e717b6fdb">See above (ManufacturedItemDefinition/mid-1a7318638ddbbeb084ef416e717b6fdb)</a></li><li><a href="#MedicinalProductDefinition_mpb3a8d58c709a2281d8ad2a590fe81663">See above (MedicinalProductDefinition/mpb3a8d58c709a2281d8ad2a590fe81663)</a></li><li><a href="#AdministrableProductDefinition_ap-1a7318638ddbbeb084ef416e717b6fdb">See above (AdministrableProductDefinition/ap-1a7318638ddbbeb084ef416e717b6fdb)</a></li></ul><p><b>role</b>: Excipient <span style="background: LightGoldenRodYellow; margin: 4px; border: 1px solid khaki"> (rmswi#100000072082)</span></p><blockquote><p><b>substance</b></p><h3>Codes</h3><table class="grid"><tr><td style="display: none">-</td><td><b>Concept</b></td></tr><tr><td style="display: none">*</td><td>Ethylcellulose <span style="background: LightGoldenRodYellow; margin: 4px; border: 1px solid khaki"> (beta#7Z8S9VYZ4B)</span></td></tr></table></blockquote></div>
        </text>
        <identifier>
          <use value="official"/>
          <system value="https://gsrs.ncats.nih.gov/ginas/app/beta"/>
          <value value="7Z8S9VYZ4B"/>
        </identifier>
        <status value="active"/>
        <for>
          <reference value="ManufacturedItemDefinition/mid-1a7318638ddbbeb084ef416e717b6fdb"/>
        </for>
        <for>
          <reference value="MedicinalProductDefinition/mpb3a8d58c709a2281d8ad2a590fe81663"/>
        </for>
        <for>
          <reference value="AdministrableProductDefinition/ap-1a7318638ddbbeb084ef416e717b6fdb"/>
        </for>
        <role>
          <coding>
            <system value="https://spor.ema.europa.eu/rmswi"/>
            <code value="100000072082"/>
            <display value="Excipient"/>
          </coding>
        </role>
        <substance>
          <code>
            <concept>
              <coding>
                <system value="https://gsrs.ncats.nih.gov/ginas/app/beta"/>
                <code value="7Z8S9VYZ4B"/>
                <display value="Ethylcellulose"/>
              </coding>
            </concept>
          </code>
        </substance>
      </Ingredient>
    </resource>
  </entry>
  <entry>
    <fullUrl value="http://hl7.eu/fhir/ig/gravitate-health/Ingredient/ingredient-for-pentasa-magnesiumstearate"/>
    <resource>
      <Ingredient>
        <id value="ingredient-for-pentasa-magnesiumstearate"/>
        <meta>
          <profile value="http://hl7.org/fhir/uv/emedicinal-product-info/StructureDefinition/Ingredient-uv-epi"/>
        </meta>
        <text>
          <status value="generated"/><div xmlns="http://www.w3.org/1999/xhtml"><p><b>Generated Narrative: Ingredient</b><a name="ingredient-for-pentasa-magnesiumstearate"> </a></p><div style="display: inline-block; background-color: #d9e0e7; padding: 6px; margin: 4px; border: 1px solid #8da1b4; border-radius: 5px; line-height: 60%"><p style="margin-bottom: 0px">Resource Ingredient &quot;ingredient-for-pentasa-magnesiumstearate&quot; </p><p style="margin-bottom: 0px">Profile: <a href="https://build.fhir.org/ig/HL7/emedicinal-product-info//StructureDefinition-Ingredient-uv-epi.html">Ingredient (ePI)</a></p></div><p><b>identifier</b>: id: 70097M6I30 (use: OFFICIAL)</p><p><b>status</b>: active</p><p><b>for</b>: </p><ul><li><a href="#ManufacturedItemDefinition_mid-1a7318638ddbbeb084ef416e717b6fdb">See above (ManufacturedItemDefinition/mid-1a7318638ddbbeb084ef416e717b6fdb)</a></li><li><a href="#MedicinalProductDefinition_mpb3a8d58c709a2281d8ad2a590fe81663">See above (MedicinalProductDefinition/mpb3a8d58c709a2281d8ad2a590fe81663)</a></li><li><a href="#AdministrableProductDefinition_ap-1a7318638ddbbeb084ef416e717b6fdb">See above (AdministrableProductDefinition/ap-1a7318638ddbbeb084ef416e717b6fdb)</a></li></ul><p><b>role</b>: Excipient <span style="background: LightGoldenRodYellow; margin: 4px; border: 1px solid khaki"> (rmswi#100000072082)</span></p><blockquote><p><b>substance</b></p><h3>Codes</h3><table class="grid"><tr><td style="display: none">-</td><td><b>Concept</b></td></tr><tr><td style="display: none">*</td><td>Magnesium stearate <span style="background: LightGoldenRodYellow; margin: 4px; border: 1px solid khaki"> (beta#70097M6I30)</span></td></tr></table></blockquote></div>
        </text>
        <identifier>
          <use value="official"/>
          <system value="https://gsrs.ncats.nih.gov/ginas/app/beta"/>
          <value value="70097M6I30"/>
        </identifier>
        <status value="active"/>
        <for>
          <reference value="ManufacturedItemDefinition/mid-1a7318638ddbbeb084ef416e717b6fdb"/>
        </for>
        <for>
          <reference value="MedicinalProductDefinition/mpb3a8d58c709a2281d8ad2a590fe81663"/>
        </for>
        <for>
          <reference value="AdministrableProductDefinition/ap-1a7318638ddbbeb084ef416e717b6fdb"/>
        </for>
        <role>
          <coding>
            <system value="https://spor.ema.europa.eu/rmswi"/>
            <code value="100000072082"/>
            <display value="Excipient"/>
          </coding>
        </role>
        <substance>
          <code>
            <concept>
              <coding>
                <system value="https://gsrs.ncats.nih.gov/ginas/app/beta"/>
                <code value="70097M6I30"/>
                <display value="Magnesium stearate"/>
              </coding>
            </concept>
          </code>
        </substance>
      </Ingredient>
    </resource>
  </entry>
  <entry>
    <fullUrl value="http://hl7.eu/fhir/ig/gravitate-health/Ingredient/ingredient-for-pentasa-talc"/>
    <resource>
      <Ingredient>
        <id value="ingredient-for-pentasa-talc"/>
        <meta>
          <profile value="http://hl7.org/fhir/uv/emedicinal-product-info/StructureDefinition/Ingredient-uv-epi"/>
        </meta>
        <text>
          <status value="generated"/><div xmlns="http://www.w3.org/1999/xhtml"><p><b>Generated Narrative: Ingredient</b><a name="ingredient-for-pentasa-talc"> </a></p><div style="display: inline-block; background-color: #d9e0e7; padding: 6px; margin: 4px; border: 1px solid #8da1b4; border-radius: 5px; line-height: 60%"><p style="margin-bottom: 0px">Resource Ingredient &quot;ingredient-for-pentasa-talc&quot; </p><p style="margin-bottom: 0px">Profile: <a href="https://build.fhir.org/ig/HL7/emedicinal-product-info//StructureDefinition-Ingredient-uv-epi.html">Ingredient (ePI)</a></p></div><p><b>identifier</b>: id: 7SEV7J4R1U (use: OFFICIAL)</p><p><b>status</b>: active</p><p><b>for</b>: </p><ul><li><a href="#ManufacturedItemDefinition_mid-1a7318638ddbbeb084ef416e717b6fdb">See above (ManufacturedItemDefinition/mid-1a7318638ddbbeb084ef416e717b6fdb)</a></li><li><a href="#MedicinalProductDefinition_mpb3a8d58c709a2281d8ad2a590fe81663">See above (MedicinalProductDefinition/mpb3a8d58c709a2281d8ad2a590fe81663)</a></li><li><a href="#AdministrableProductDefinition_ap-1a7318638ddbbeb084ef416e717b6fdb">See above (AdministrableProductDefinition/ap-1a7318638ddbbeb084ef416e717b6fdb)</a></li></ul><p><b>role</b>: Excipient <span style="background: LightGoldenRodYellow; margin: 4px; border: 1px solid khaki"> (rmswi#100000072082)</span></p><blockquote><p><b>substance</b></p><h3>Codes</h3><table class="grid"><tr><td style="display: none">-</td><td><b>Concept</b></td></tr><tr><td style="display: none">*</td><td>Talc <span style="background: LightGoldenRodYellow; margin: 4px; border: 1px solid khaki"> (beta#7SEV7J4R1U)</span></td></tr></table></blockquote></div>
        </text>
        <identifier>
          <use value="official"/>
          <system value="https://gsrs.ncats.nih.gov/ginas/app/beta"/>
          <value value="7SEV7J4R1U"/>
        </identifier>
        <status value="active"/>
        <for>
          <reference value="ManufacturedItemDefinition/mid-1a7318638ddbbeb084ef416e717b6fdb"/>
        </for>
        <for>
          <reference value="MedicinalProductDefinition/mpb3a8d58c709a2281d8ad2a590fe81663"/>
        </for>
        <for>
          <reference value="AdministrableProductDefinition/ap-1a7318638ddbbeb084ef416e717b6fdb"/>
        </for>
        <role>
          <coding>
            <system value="https://spor.ema.europa.eu/rmswi"/>
            <code value="100000072082"/>
            <display value="Excipient"/>
          </coding>
        </role>
        <substance>
          <code>
            <concept>
              <coding>
                <system value="https://gsrs.ncats.nih.gov/ginas/app/beta"/>
                <code value="7SEV7J4R1U"/>
                <display value="Talc"/>
              </coding>
            </concept>
          </code>
        </substance>
      </Ingredient>
    </resource>
  </entry>
  <entry>
    <fullUrl value="http://hl7.eu/fhir/ig/gravitate-health/Ingredient/ingredient-for-pentasa-microcrystallinecellulose"/>
    <resource>
      <Ingredient>
        <id value="ingredient-for-pentasa-microcrystallinecellulose"/>
        <meta>
          <profile value="http://hl7.org/fhir/uv/emedicinal-product-info/StructureDefinition/Ingredient-uv-epi"/>
        </meta>
        <text>
          <status value="generated"/><div xmlns="http://www.w3.org/1999/xhtml"><p><b>Generated Narrative: Ingredient</b><a name="ingredient-for-pentasa-microcrystallinecellulose"> </a></p><div style="display: inline-block; background-color: #d9e0e7; padding: 6px; margin: 4px; border: 1px solid #8da1b4; border-radius: 5px; line-height: 60%"><p style="margin-bottom: 0px">Resource Ingredient &quot;ingredient-for-pentasa-microcrystallinecellulose&quot; </p><p style="margin-bottom: 0px">Profile: <a href="https://build.fhir.org/ig/HL7/emedicinal-product-info//StructureDefinition-Ingredient-uv-epi.html">Ingredient (ePI)</a></p></div><p><b>identifier</b>: id: OP1R32D61U (use: OFFICIAL)</p><p><b>status</b>: active</p><p><b>for</b>: </p><ul><li><a href="#ManufacturedItemDefinition_mid-1a7318638ddbbeb084ef416e717b6fdb">See above (ManufacturedItemDefinition/mid-1a7318638ddbbeb084ef416e717b6fdb)</a></li><li><a href="#MedicinalProductDefinition_mpb3a8d58c709a2281d8ad2a590fe81663">See above (MedicinalProductDefinition/mpb3a8d58c709a2281d8ad2a590fe81663)</a></li><li><a href="#AdministrableProductDefinition_ap-1a7318638ddbbeb084ef416e717b6fdb">See above (AdministrableProductDefinition/ap-1a7318638ddbbeb084ef416e717b6fdb)</a></li></ul><p><b>role</b>: Excipient <span style="background: LightGoldenRodYellow; margin: 4px; border: 1px solid khaki"> (rmswi#100000072082)</span></p><blockquote><p><b>substance</b></p><h3>Codes</h3><table class="grid"><tr><td style="display: none">-</td><td><b>Concept</b></td></tr><tr><td style="display: none">*</td><td>Microcrystalline cellulose <span style="background: LightGoldenRodYellow; margin: 4px; border: 1px solid khaki"> (beta#OP1R32D61U)</span></td></tr></table></blockquote></div>
        </text>
        <identifier>
          <use value="official"/>
          <system value="https://gsrs.ncats.nih.gov/ginas/app/beta"/>
          <value value="OP1R32D61U"/>
        </identifier>
        <status value="active"/>
        <for>
          <reference value="ManufacturedItemDefinition/mid-1a7318638ddbbeb084ef416e717b6fdb"/>
        </for>
        <for>
          <reference value="MedicinalProductDefinition/mpb3a8d58c709a2281d8ad2a590fe81663"/>
        </for>
        <for>
          <reference value="AdministrableProductDefinition/ap-1a7318638ddbbeb084ef416e717b6fdb"/>
        </for>
        <role>
          <coding>
            <system value="https://spor.ema.europa.eu/rmswi"/>
            <code value="100000072082"/>
            <display value="Excipient"/>
          </coding>
        </role>
        <substance>
          <code>
            <concept>
              <coding>
                <system value="https://gsrs.ncats.nih.gov/ginas/app/beta"/>
                <code value="OP1R32D61U"/>
                <display value="Microcrystalline cellulose"/>
              </coding>
            </concept>
          </code>
        </substance>
      </Ingredient>
    </resource>
  </entry>
  <entry>
    <fullUrl value="http://hl7.eu/fhir/ig/gravitate-health/SubstanceDefinition/substance-mesalamine"/>
    <resource>
      <SubstanceDefinition>
        <id value="substance-mesalamine"/>
        <meta>
          <profile value="http://hl7.org/fhir/uv/emedicinal-product-info/StructureDefinition/SubstanceDefinition-uv-epi"/>
        </meta>
        <text>
          <status value="generated"/><div xmlns="http://www.w3.org/1999/xhtml"><p><b>Generated Narrative: SubstanceDefinition</b><a name="substance-mesalamine"> </a></p><div style="display: inline-block; background-color: #d9e0e7; padding: 6px; margin: 4px; border: 1px solid #8da1b4; border-radius: 5px; line-height: 60%"><p style="margin-bottom: 0px">Resource SubstanceDefinition &quot;substance-mesalamine&quot; </p><p style="margin-bottom: 0px">Profile: <a href="https://build.fhir.org/ig/HL7/emedicinal-product-info//StructureDefinition-SubstanceDefinition-uv-epi.html">SubstanceDefinition (ePI)</a></p></div><p><b>identifier</b>: id: 4Q81I59GXC (use: OFFICIAL)</p><p><b>version</b>: 1</p><p><b>status</b>: Active <span style="background: LightGoldenRodYellow; margin: 4px; border: 1px solid khaki"> (<a href="http://hl7.org/fhir/R5/codesystem-publication-status.html">PublicationStatus</a>#active)</span></p><p><b>manufacturer</b>: <a href="#Organization_mah-6ade044addd6563de0baefebb1cceb8e">See above (Organization/mah-6ade044addd6563de0baefebb1cceb8e)</a></p><h3>MolecularWeights</h3><table class="grid"><tr><td style="display: none">-</td><td><b>Type</b></td><td><b>Amount</b></td></tr><tr><td style="display: none">*</td><td>exact <span style="background: LightGoldenRodYellow; margin: 4px; border: 1px solid khaki"> ()</span></td><td>153.14</td></tr></table><h3>Structures</h3><table class="grid"><tr><td style="display: none">-</td><td><b>MolecularFormula</b></td></tr><tr><td style="display: none">*</td><td>C7H7NO3</td></tr></table><h3>Names</h3><table class="grid"><tr><td style="display: none">-</td><td><b>Name</b></td><td><b>Type</b></td></tr><tr><td style="display: none">*</td><td>5-AMINO-2-HYDROXYBENZOIC ACID</td><td>Chemical Name <span style="background: LightGoldenRodYellow; margin: 4px; border: 1px solid khaki"> (#x)</span></td></tr></table></div>
        </text>
        <identifier>
          <use value="official"/>
          <system value="https://gsrs.ncats.nih.gov/ginas/app/beta/"/>
          <value value="4Q81I59GXC"/>
        </identifier>
        <version value="1"/>
        <status>
          <coding>
            <system value="http://hl7.org/fhir/publication-status"/>
            <code value="active"/>
          </coding>
        </status>
        <manufacturer>
          <reference value="Organization/mah-6ade044addd6563de0baefebb1cceb8e"/>
        </manufacturer>
        <molecularWeight>
          <type>
            <text value="exact"/>
          </type>
          <amount>
            <value value="153.14"/>
          </amount>
        </molecularWeight>
        <structure>
          <molecularFormula value="C7H7NO3"/>
        </structure>
        <name>
          <name value="5-AMINO-2-HYDROXYBENZOIC ACID"/>
          <type>
            <coding>
              <system value="https://gsrs.ncats.nih.gov/ginas/app/beta/"/>
              <code value="x"/>
              <display value="Chemical Name"/>
            </coding>
          </type>
        </name>
      </SubstanceDefinition>
    </resource>
  </entry>
  <entry>
    <fullUrl value="http://hl7.eu/fhir/ig/gravitate-health/AdministrableProductDefinition/ap-1a7318638ddbbeb084ef416e717b6fdb"/>
    <resource>
      <AdministrableProductDefinition>
        <id value="ap-1a7318638ddbbeb084ef416e717b6fdb"/>
        <meta>
          <profile value="http://hl7.org/fhir/uv/emedicinal-product-info/StructureDefinition/AdministrableProductDefinition-uv-epi"/>
        </meta>
        <text>
          <status value="generated"/><div xmlns="http://www.w3.org/1999/xhtml"><p><b>Generated Narrative: AdministrableProductDefinition</b><a name="ap-1a7318638ddbbeb084ef416e717b6fdb"> </a></p><div style="display: inline-block; background-color: #d9e0e7; padding: 6px; margin: 4px; border: 1px solid #8da1b4; border-radius: 5px; line-height: 60%"><p style="margin-bottom: 0px">Resource AdministrableProductDefinition &quot;ap-1a7318638ddbbeb084ef416e717b6fdb&quot; </p><p style="margin-bottom: 0px">Profile: <a href="https://build.fhir.org/ig/HL7/emedicinal-product-info//StructureDefinition-AdministrableProductDefinition-uv-epi.html">AdministrableProductDefinition (ePI)</a></p></div><p><b>identifier</b>: id: xx</p><p><b>status</b>: active</p><p><b>formOf</b>: <a href="#MedicinalProductDefinition_mpb3a8d58c709a2281d8ad2a590fe81663">See above (MedicinalProductDefinition/mpb3a8d58c709a2281d8ad2a590fe81663)</a></p><p><b>administrableDoseForm</b>: Prolonged-release tablet <span style="background: LightGoldenRodYellow; margin: 4px; border: 1px solid khaki"> (rmswi#10226000)</span></p><p><b>unitOfPresentation</b>: tablet <span style="background: LightGoldenRodYellow; margin: 4px; border: 1px solid khaki"> (rmswi#200000002152)</span></p><p><b>producedFrom</b>: <a href="#ManufacturedItemDefinition_mid-1a7318638ddbbeb084ef416e717b6fdb">See above (ManufacturedItemDefinition/mid-1a7318638ddbbeb084ef416e717b6fdb)</a></p><blockquote><p><b>routeOfAdministration</b></p><p><b>code</b>: Oral use <span style="background: LightGoldenRodYellow; margin: 4px; border: 1px solid khaki"> (rmswi#100000073619)</span></p><h3>TargetSpecies</h3><table class="grid"><tr><td style="display: none">-</td><td><b>Code</b></td></tr><tr><td style="display: none">*</td><td>Human <span style="background: LightGoldenRodYellow; margin: 4px; border: 1px solid khaki"> (rmswi#100000109093)</span></td></tr></table></blockquote></div>
        </text>
        <identifier>
          <system value="https://www.who-umc.org/phpid"/>
          <value value="xx"/>
        </identifier>
        <status value="active"/>
        <formOf>
          <reference value="MedicinalProductDefinition/mpb3a8d58c709a2281d8ad2a590fe81663"/>
        </formOf>
        <administrableDoseForm>
          <coding>
            <system value="https://spor.ema.europa.eu/rmswi"/>
            <code value="10226000"/>
            <display value="Prolonged-release tablet"/>
          </coding>
        </administrableDoseForm>
        <unitOfPresentation>
          <coding>
            <system value="https://spor.ema.europa.eu/rmswi"/>
            <code value="200000002152"/>
            <display value="tablet"/>
          </coding>
        </unitOfPresentation>
        <producedFrom>
          <reference value="ManufacturedItemDefinition/mid-1a7318638ddbbeb084ef416e717b6fdb"/>
        </producedFrom>
        <routeOfAdministration>
          <code>
            <coding>
              <system value="https://spor.ema.europa.eu/rmswi"/>
              <code value="100000073619"/>
              <display value="Oral use"/>
            </coding>
          </code>
          <targetSpecies>
            <code>
              <coding>
                <system value="https://spor.ema.europa.eu/rmswi"/>
                <code value="100000109093"/>
                <display value="Human"/>
              </coding>
            </code>
          </targetSpecies>
        </routeOfAdministration>
      </AdministrableProductDefinition>
    </resource>
  </entry>
  <entry>
    <fullUrl value="http://hl7.eu/fhir/ig/gravitate-health/RegulatedAuthorization/authorization4c6fd7bcbb34ab6e64e45a5035e4e5f4"/>
    <resource>
      <RegulatedAuthorization>
        <id value="authorization4c6fd7bcbb34ab6e64e45a5035e4e5f4"/>
        <meta>
          <profile value="http://hl7.org/fhir/uv/emedicinal-product-info/StructureDefinition/RegulatedAuthorization-uv-epi"/>
        </meta>
        <text>
          <status value="generated"/><div xmlns="http://www.w3.org/1999/xhtml"><p><b>Generated Narrative: RegulatedAuthorization</b><a name="authorization4c6fd7bcbb34ab6e64e45a5035e4e5f4"> </a></p><div style="display: inline-block; background-color: #d9e0e7; padding: 6px; margin: 4px; border: 1px solid #8da1b4; border-radius: 5px; line-height: 60%"><p style="margin-bottom: 0px">Resource RegulatedAuthorization &quot;authorization4c6fd7bcbb34ab6e64e45a5035e4e5f4&quot; </p><p style="margin-bottom: 0px">Profile: <a href="https://build.fhir.org/ig/HL7/emedicinal-product-info//StructureDefinition-RegulatedAuthorization-uv-epi.html">RegulatedAuthorization (ePI)</a></p></div><p><b>identifier</b>: id: 77022 (use: OFFICIAL)</p><p><b>subject</b>: <a href="#MedicinalProductDefinition_mpb3a8d58c709a2281d8ad2a590fe81663">See above (MedicinalProductDefinition/mpb3a8d58c709a2281d8ad2a590fe81663)</a></p><p><b>type</b>: Marketing Authorisation <span style="background: LightGoldenRodYellow; margin: 4px; border: 1px solid khaki"> (rmswi#100000072062)</span></p><p><b>status</b>: Active <span style="background: LightGoldenRodYellow; margin: 4px; border: 1px solid khaki"> (<a href="http://hl7.org/fhir/R5/codesystem-publication-status.html">PublicationStatus</a>#active)</span></p><p><b>statusDate</b>: 2021-01-01</p><p><b>holder</b>: <a href="#Organization_mah-6ade044addd6563de0baefebb1cceb8e">See above (Organization/mah-6ade044addd6563de0baefebb1cceb8e)</a></p></div>
        </text>
        <identifier>
          <use value="official"/>
          <system value="https://spor.ema.europa.eu/pmswi"/>
          <value value="77022"/>
        </identifier>
        <subject>
          <reference value="MedicinalProductDefinition/mpb3a8d58c709a2281d8ad2a590fe81663"/>
        </subject>
        <type>
          <coding>
            <system value="https://spor.ema.europa.eu/rmswi"/>
            <code value="100000072062"/>
            <display value="Marketing Authorisation"/>
          </coding>
        </type>
        <status>
          <coding>
            <system value="http://hl7.org/fhir/publication-status"/>
            <code value="active"/>
            <display value="Active"/>
          </coding>
        </status>
        <statusDate value="2021-01-01"/>
        <holder>
          <reference value="Organization/mah-6ade044addd6563de0baefebb1cceb8e"/>
        </holder>
      </RegulatedAuthorization>
    </resource>
  </entry>
  <entry>
    <fullUrl value="http://hl7.eu/fhir/ig/gravitate-health/Organization/mah-6ade044addd6563de0baefebb1cceb8e"/>
    <resource>
      <Organization>
        <id value="mah-6ade044addd6563de0baefebb1cceb8e"/>
        <meta>
          <profile value="http://hl7.org/fhir/uv/emedicinal-product-info/StructureDefinition/Organization-uv-epi"/>
        </meta>
        <text>
          <status value="generated"/><div xmlns="http://www.w3.org/1999/xhtml"><p><b>Generated Narrative: Organization</b><a name="mah-6ade044addd6563de0baefebb1cceb8e"> </a></p><div style="display: inline-block; background-color: #d9e0e7; padding: 6px; margin: 4px; border: 1px solid #8da1b4; border-radius: 5px; line-height: 60%"><p style="margin-bottom: 0px">Resource Organization &quot;mah-6ade044addd6563de0baefebb1cceb8e&quot; </p><p style="margin-bottom: 0px">Profile: <a href="https://build.fhir.org/ig/HL7/emedicinal-product-info//StructureDefinition-Organization-uv-epi.html">Organization (ePI)</a></p></div><p><b>identifier</b>: id: ORG-100000621 (use: OFFICIAL)</p><p><b>active</b>: true</p><p><b>type</b>: Marketing authorisation holder <span style="background: LightGoldenRodYellow; margin: 4px; border: 1px solid khaki"> (rmswi#220000000034)</span></p><p><b>name</b>: FERRING S.A.U.</p><h3>Contacts</h3><table class="grid"><tr><td style="display: none">-</td><td><b>Address</b></td></tr><tr><td style="display: none">*</td><td>C/ del Arquitecto Sánchez Arcas nº 3, 1º Madrid ES(WORK)</td></tr></table></div>
        </text>
        <identifier>
          <use value="official"/>
          <system value="https://spor.ema.europa.eu/omswi"/>
          <value value="ORG-100000621"/>
        </identifier>
        <active value="true"/>
        <type>
          <coding>
            <system value="https://spor.ema.europa.eu/rmswi"/>
            <code value="220000000034"/>
            <display value="Marketing authorisation holder"/>
          </coding>
        </type>
        <name value="FERRING S.A.U."/>
        <contact>
          <address>
            <use value="work"/>
            <type value="physical"/>
            <text value="C/ del Arquitecto Sánchez Arcas nº 3, 1º Madrid ES"/>
            <line value="C/ del Arquitecto Sánchez Arcas nº 3, 1º"/>
            <city value="Madrid"/>
            <postalCode value="28040"/>
            <country value="ES"/>
          </address>
        </contact>
      </Organization>
    </resource>
  </entry>
  <entry>
    <fullUrl value="http://hl7.eu/fhir/ig/gravitate-health/PackagedProductDefinition/ppd-1a7318638ddbbeb084ef416e717b6fdb"/>
    <resource>
      <PackagedProductDefinition>
        <id value="ppd-1a7318638ddbbeb084ef416e717b6fdb"/>
        <meta>
          <profile value="http://hl7.org/fhir/uv/emedicinal-product-info/StructureDefinition/PackagedProductDefinition-uv-epi"/>
        </meta>
        <text>
          <status value="generated"/><div xmlns="http://www.w3.org/1999/xhtml"><p><b>Generated Narrative: PackagedProductDefinition</b><a name="ppd-1a7318638ddbbeb084ef416e717b6fdb"> </a></p><div style="display: inline-block; background-color: #d9e0e7; padding: 6px; margin: 4px; border: 1px solid #8da1b4; border-radius: 5px; line-height: 60%"><p style="margin-bottom: 0px">Resource PackagedProductDefinition &quot;ppd-1a7318638ddbbeb084ef416e717b6fdb&quot; </p><p style="margin-bottom: 0px">Profile: <a href="https://build.fhir.org/ig/HL7/emedicinal-product-info//StructureDefinition-PackagedProductDefinition-uv-epi.html">PackagedProductDefinition (ePI)</a></p></div><p><b>identifier</b>: id: x (use: OFFICIAL)</p><p><b>name</b>: Pentasa Slow Release Tablets 1g</p><p><b>type</b>: Chemical Medicinal Prodcut <span style="background: LightGoldenRodYellow; margin: 4px; border: 1px solid khaki"> (rmswi#100000155527)</span></p><p><b>packageFor</b>: <a href="#MedicinalProductDefinition_mpb3a8d58c709a2281d8ad2a590fe81663">See above (MedicinalProductDefinition/mpb3a8d58c709a2281d8ad2a590fe81663)</a></p><p><b>status</b>: Active <span style="background: LightGoldenRodYellow; margin: 4px; border: 1px solid khaki"> (<a href="http://hl7.org/fhir/R5/codesystem-publication-status.html">PublicationStatus</a>#active)</span></p><p><b>statusDate</b>: 2021-01-01</p><p><b>containedItemQuantity</b>: 1 g<span style="background: LightGoldenRodYellow"> (Details: UCUM code g = 'g')</span></p><p><b>copackagedIndicator</b>: false</p><blockquote><p><b>packaging</b></p><p><b>identifier</b>: id: mock-id</p><p><b>type</b>: Box <span style="background: LightGoldenRodYellow; margin: 4px; border: 1px solid khaki"> (rmswi#100000073498)</span></p><p><b>quantity</b>: 1</p><h3>Packagings</h3><table class="grid"><tr><td style="display: none">-</td><td><b>Identifier</b></td><td><b>Type</b></td><td><b>Quantity</b></td><td><b>Material</b></td></tr><tr><td style="display: none">*</td><td>id: 123456</td><td>Blister <span style="background: LightGoldenRodYellow; margin: 4px; border: 1px solid khaki"> (rmswi#100000073496)</span></td><td>28</td><td>PolyVinyl Chloride <span style="background: LightGoldenRodYellow; margin: 4px; border: 1px solid khaki"> (rmswi#200000003222)</span></td></tr></table></blockquote></div>
        </text>
        <identifier>
          <use value="official"/>
          <system value="https://spor.ema.europa.eu/pmswi"/>
          <value value="x"/>
        </identifier>
        <name value="Pentasa Slow Release Tablets 1g"/>
        <type>
          <coding>
            <system value="https://spor.ema.europa.eu/rmswi"/>
            <code value="100000155527"/>
            <display value="Chemical Medicinal Prodcut"/>
          </coding>
        </type>
        <packageFor>
          <reference value="MedicinalProductDefinition/mpb3a8d58c709a2281d8ad2a590fe81663"/>
        </packageFor>
        <status>
          <coding>
            <system value="http://hl7.org/fhir/publication-status"/>
            <code value="active"/>
            <display value="Active"/>
          </coding>
        </status>
        <statusDate value="2021-01-01"/>
        <containedItemQuantity>
          <value value="1"/>
          <system value="http://unitsofmeasure.org"/>
          <code value="g"/>
        </containedItemQuantity>
        <copackagedIndicator value="false"/>
        <packaging>
          <identifier>
            <system value="https://spor.ema.europa.eu/pmswi"/>
            <value value="mock-id"/>
          </identifier>
          <type>
            <coding>
              <system value="https://spor.ema.europa.eu/rmswi"/>
              <code value="100000073498"/>
              <display value="Box"/>
            </coding>
          </type>
          <quantity value="1"/>
          <packaging>
            <identifier>
              <system value="https://spor.ema.europa.eu/pmswi"/>
              <value value="123456"/>
            </identifier>
            <type>
              <coding>
                <system value="https://spor.ema.europa.eu/rmswi"/>
                <code value="100000073496"/>
                <display value="Blister"/>
              </coding>
            </type>
            <quantity value="28"/>
            <material>
              <coding>
                <system value="https://spor.ema.europa.eu/rmswi"/>
                <code value="200000003222"/>
                <display value="PolyVinyl Chloride"/>
              </coding>
            </material>
          </packaging>
        </packaging>
      </PackagedProductDefinition>
    </resource>
  </entry>
  <entry>
    <fullUrl value="http://hl7.eu/fhir/ig/gravitate-health/MedicinalProductDefinition/mpb3a8d58c709a2281d8ad2a590fe81663"/>
    <resource>
      <MedicinalProductDefinition>
        <id value="mpb3a8d58c709a2281d8ad2a590fe81663"/>
        <meta>
          <profile value="http://hl7.org/fhir/uv/emedicinal-product-info/StructureDefinition/MedicinalProductDefinition-uv-epi"/>
        </meta>
        <text>
          <status value="generated"/><div xmlns="http://www.w3.org/1999/xhtml"><p><b>Generated Narrative: MedicinalProductDefinition</b><a name="mpb3a8d58c709a2281d8ad2a590fe81663"> </a></p><div style="display: inline-block; background-color: #d9e0e7; padding: 6px; margin: 4px; border: 1px solid #8da1b4; border-radius: 5px; line-height: 60%"><p style="margin-bottom: 0px">Resource MedicinalProductDefinition &quot;mpb3a8d58c709a2281d8ad2a590fe81663&quot; </p><p style="margin-bottom: 0px">Profile: <a href="https://build.fhir.org/ig/HL7/emedicinal-product-info//StructureDefinition-MedicinalProductDefinition-uv-epi.html">MedicinalProductDefinition (ePI)</a></p></div><p><b>identifier</b>: id: 77022, id: 0xF79CABF272B6A7EEF104DDDA44E827xx</p><p><b>type</b>: Medicinal Product <span style="background: LightGoldenRodYellow; margin: 4px; border: 1px solid khaki"> (<a href="http://hl7.org/fhir/R5/codesystem-medicinal-product-type.html">Medicinal Product Type</a>#MedicinalProduct)</span></p><p><b>domain</b>: Human use <span style="background: LightGoldenRodYellow; margin: 4px; border: 1px solid khaki"> (<a href="http://hl7.org/fhir/R5/codesystem-medicinal-product-domain.html">Medicinal Product Domain</a>#Human)</span></p><p><b>status</b>: active <span style="background: LightGoldenRodYellow; margin: 4px; border: 1px solid khaki"> (<a href="http://hl7.org/fhir/R5/codesystem-publication-status.html">PublicationStatus</a>#active)</span></p><p><b>legalStatusOfSupply</b>: Medicinal product subject to medical prescription <span style="background: LightGoldenRodYellow; margin: 4px; border: 1px solid khaki"> (rmswi#100000000000)</span></p><blockquote><p><b>name</b></p><p><b>productName</b>: Pentasa Slow Release Tablets 1g</p><p><b>type</b>: Full name <span style="background: LightGoldenRodYellow; margin: 4px; border: 1px solid khaki"> (220000000000#220000000001)</span></p><blockquote><p><b>part</b></p><p><b>part</b>: Pentasa</p><p><b>type</b>: Invented name part <span style="background: LightGoldenRodYellow; margin: 4px; border: 1px solid khaki"> (220000000000#220000000002)</span></p></blockquote><blockquote><p><b>part</b></p><p><b>part</b>: mesalazine</p><p><b>type</b>: Scientific name part <span style="background: LightGoldenRodYellow; margin: 4px; border: 1px solid khaki"> (220000000000#220000000003)</span></p></blockquote><blockquote><p><b>part</b></p><p><b>part</b>: 1 g</p><p><b>type</b>: Strength part <span style="background: LightGoldenRodYellow; margin: 4px; border: 1px solid khaki"> (220000000000#220000000004)</span></p></blockquote><blockquote><p><b>part</b></p><p><b>part</b>: Prolonged-release tablet</p><p><b>type</b>: Pharmaceutical dose form part <span style="background: LightGoldenRodYellow; margin: 4px; border: 1px solid khaki"> (220000000000#220000000005)</span></p></blockquote><h3>Usages</h3><table class="grid"><tr><td style="display: none">-</td><td><b>Country</b></td><td><b>Jurisdiction</b></td><td><b>Language</b></td></tr><tr><td style="display: none">*</td><td>Spain <span style="background: LightGoldenRodYellow; margin: 4px; border: 1px solid khaki"> (<a href="http://terminology.hl7.org/5.3.0/CodeSystem-ISO3166Part1.html">ISO 3166-1 Codes for the representation of names of countries and their subdivisions — Part 1: Country code</a>#ES)</span></td><td>Spain <span style="background: LightGoldenRodYellow; margin: 4px; border: 1px solid khaki"> (<a href="http://terminology.hl7.org/5.3.0/CodeSystem-ISO3166Part1.html">ISO 3166-1 Codes for the representation of names of countries and their subdivisions — Part 1: Country code</a>#ES)</span></td><td>English <span style="background: LightGoldenRodYellow; margin: 4px; border: 1px solid khaki"> (<a href="http://terminology.hl7.org/5.3.0/CodeSystem-v3-ietf3066.html">Tags for the Identification of Languages</a>#en)</span></td></tr></table></blockquote></div>
        </text>
        <identifier>
          <system value="https://spor.ema.europa.eu/pmswi"/>
          <value value="77022"/>
        </identifier>
        <identifier>
          <system value="https://www.who-umc.org/phpid"/>
          <value value="0xF79CABF272B6A7EEF104DDDA44E827xx"/>
        </identifier>
        <type>
          <coding>
            <system value="http://hl7.org/fhir/medicinal-product-type"/>
            <code value="MedicinalProduct"/>
            <display value="Medicinal Product"/>
          </coding>
        </type>
        <domain>
          <coding>
            <system value="http://hl7.org/fhir/medicinal-product-domain"/>
            <code value="Human"/>
            <display value="Human use"/>
          </coding>
        </domain>
        <status>
          <coding>
            <system value="http://hl7.org/fhir/publication-status"/>
            <code value="active"/>
            <display value="active"/>
          </coding>
        </status>
        <legalStatusOfSupply>
          <coding>
            <system value="https://spor.ema.europa.eu/rmswi"/>
            <code value="100000000000"/>
            <display value="Medicinal product subject to medical prescription"/>
          </coding>
        </legalStatusOfSupply>
        <name>
          <productName value="Pentasa Slow Release Tablets 1g"/>
          <type>
            <coding>
              <system value="https://spor.ema.europa.eu/lists/220000000000"/>
              <code value="220000000001"/>
            </coding>
            <text value="Full name"/>
          </type>
          <part>
            <part value="Pentasa"/>
            <type>
              <coding>
                <system value="https://spor.ema.europa.eu/lists/220000000000"/>
                <code value="220000000002"/>
              </coding>
              <text value="Invented name part"/>
            </type>
          </part>
          <part>
            <part value="mesalazine"/>
            <type>
              <coding>
                <system value="https://spor.ema.europa.eu/lists/220000000000"/>
                <code value="220000000003"/>
              </coding>
              <text value="Scientific name part"/>
            </type>
          </part>
          <part>
            <part value="1 g"/>
            <type>
              <coding>
                <system value="https://spor.ema.europa.eu/lists/220000000000"/>
                <code value="220000000004"/>
              </coding>
              <text value="Strength part"/>
            </type>
          </part>
          <part>
            <part value="Prolonged-release tablet"/>
            <type>
              <coding>
                <system value="https://spor.ema.europa.eu/lists/220000000000"/>
                <code value="220000000005"/>
              </coding>
              <text value="Pharmaceutical dose form part"/>
            </type>
          </part>
          <usage>
            <country>
              <coding>
                <system value="urn:iso:std:iso:3166"/>
                <code value="ES"/>
                <display value="Spain"/>
              </coding>
            </country>
            <jurisdiction>
              <coding>
                <system value="urn:iso:std:iso:3166"/>
                <code value="ES"/>
                <display value="Spain"/>
              </coding>
            </jurisdiction>
            <language>
              <coding>
                <system value="urn:ietf:bcp:47"/>
                <code value="en"/>
                <display value="English"/>
              </coding>
            </language>
          </usage>
        </name>
      </MedicinalProductDefinition>
    </resource>
  </entry>
  <entry>
    <fullUrl value="http://hl7.eu/fhir/ig/gravitate-health/ManufacturedItemDefinition/mid-1a7318638ddbbeb084ef416e717b6fdb"/>
    <resource>
      <ManufacturedItemDefinition>
        <id value="mid-1a7318638ddbbeb084ef416e717b6fdb"/>
        <meta>
          <profile value="http://hl7.org/fhir/uv/emedicinal-product-info/StructureDefinition/ManufacturedItemDefinition-uv-epi"/>
        </meta>
        <text>
          <status value="generated"/><div xmlns="http://www.w3.org/1999/xhtml"><p><b>Generated Narrative: ManufacturedItemDefinition</b><a name="mid-1a7318638ddbbeb084ef416e717b6fdb"> </a></p><div style="display: inline-block; background-color: #d9e0e7; padding: 6px; margin: 4px; border: 1px solid #8da1b4; border-radius: 5px; line-height: 60%"><p style="margin-bottom: 0px">Resource ManufacturedItemDefinition &quot;mid-1a7318638ddbbeb084ef416e717b6fdb&quot; </p><p style="margin-bottom: 0px">Profile: <a href="https://build.fhir.org/ig/HL7/emedicinal-product-info//StructureDefinition-ManufacturedItemDefinition-uv-epi.html">ManufacturedItemDefinition (ePI)</a></p></div><p><b>identifier</b>: id: 77022 (use: OFFICIAL)</p><p><b>status</b>: active</p><p><b>manufacturedDoseForm</b>: Prolonged-release tablet <span style="background: LightGoldenRodYellow; margin: 4px; border: 1px solid khaki"> (#10226000)</span></p><p><b>unitOfPresentation</b>: Tablet <span style="background: LightGoldenRodYellow; margin: 4px; border: 1px solid khaki"> (rmswi#200000002152)</span></p></div>
        </text>
        <identifier>
          <use value="official"/>
          <system value="https://spor.ema.europa.eu/pmswi"/>
          <value value="77022"/>
        </identifier>
        <status value="active"/>
        <manufacturedDoseForm>
          <coding>
            <system value="https://spor.ema.europa.eu/rmswi/"/>
            <code value="10226000"/>
            <display value="Prolonged-release tablet"/>
          </coding>
        </manufacturedDoseForm>
        <unitOfPresentation>
          <coding>
            <system value="https://spor.ema.europa.eu/rmswi"/>
            <code value="200000002152"/>
            <display value="Tablet"/>
          </coding>
        </unitOfPresentation>
      </ManufacturedItemDefinition>
    </resource>
  </entry>
</Bundle>