<?xml version="1.0" encoding="UTF-8"?>
<?xml-stylesheet href="/nordic-epi-ig/fk-epi/fk-epi-bootstrap.xsl" type="text/xsl"?>
<Bundle xmlns="http://hl7.org/fhir">
    <id value="Bundle-Level-2-Norwegian-Type-2"/>
    <meta>
        <profile value="http://hl7.org/fhir/uv/emedicinal-product-info/StructureDefinition/Bundle-uv-epi"/>
    </meta>
    <language value="no"/>
    <identifier>
        <system value="https://felleskatalogen.no/vsid"/>
        <value value="123456"/>
    </identifier>
    <type value="document"/>
    <timestamp value="2023-03-26T01:01:01Z"/>
    <entry>
        <fullUrl
            value="https://gravitatehealth.eu/fhir/nordic-epi/Composition/Composition-Level-2-Norwegian-Type-2"/>
        <resource>
            <Composition>
                <id value="Composition-Level-2-Norwegian-Type-2"/>
                <meta>
                    <profile value="https://gravitatehealth.eu/fhir/nordic-epi-ig/StructureDefinition/Nordic-ePI-Composition-PIL"/>
                </meta>
                <language value="no"/>
                <contained>
                    <Binary>
                        <id value="img-1"/>
                        <contentType value="image/png"/>
                        <data value=""/>
                    </Binary>
                </contained>
                <identifier>
                    <system value="https://felleskatalogen.no/vsid"/>
                    <value value="654321"/>
                </identifier>
                <status value="final"/>
                <type>
                    <coding>
                        <system value="https://spor.ema.europa.eu/v1/lists/100000155531/terms/"/>
                        <code value="100000155538"/>
                    </coding>
                </type>
                <subject>
                    <reference value="MedicinalProductDefinition/MPD-Norway-1"/>
                </subject>
                <subject>
                    <reference value="MedicinalProductDefinition/MPD-Norway-2"/>
                </subject>
                <date value="2023-05-19"/>
                <author>
                    <identifier>
                        <system value="https://gravitatehealth.eu/organization"/>
                        <value value="felleskatalogen"/>
                    </identifier>
                </author>
                <title value="Brakelyx ACME"/>
                <section>
                    <title value="Pakningsvedlegg: Informasjon til pasienten"/>
                    <code>
                        <coding>
                            <system value="https://spor.ema.europa.eu/v1/lists/200000029659/terms/"/>
                            <code value="200000029894"/>
                        </coding>
                    </code>
                    <text>
                        <status value="additional"/>
                        <div xmlns="http://www.w3.org/1999/xhtml">
                            <h1>Pakningsvedlegg: Informasjon til pasienten</h1>
                            <h2>Brakelyx 100 mg tabletter</h2>
                            <h2>Brakelyx 250 mg tabletter</h2>
                            <h3>Brakelypten</h3>
                        </div>
                    </text>
                    <section>
                        <title value="Les nye gjennom dette pakningsvedlegget fr du begynner  bruke dette legemidlet. Det inneholder informasjon som er viktig for deg."/>
                        <code>
                            <coding>
                                <system value="https://gravitatehealth.eu/section"/>
                                <code value="rules"/>
                            </coding>
                        </code>
                        <text>
                            <status value="additional"/>
                            <div xmlns="http://www.w3.org/1999/xhtml">
                                <h2>Les nye gjennom dette pakningsvedlegget fr du begynner  bruke dette legemidlet. Det inneholder informasjon som er viktig for deg.</h2>
                                <ul>
                                    <li>Ta vare p dette pakningsvedlegget. Du kan f behov for  lese det igjen.</li>
                                    <li>Spr lege eller apotek hvis du har flere sprsml eller trenger mer informasjon.</li>
                                    <li>Dette legemidlet er skrevet ut kun til deg. Ikke gi det videre til andre. Det kan skade dem, selv om de har symptomer p sykdom som ligner dine.</li>
                                    <li>Kontakt lege eller apotek dersom du opplever bivirkninger. Dette gjelder ogs bivirkninger som ikke er nevnt i pakningsvedlegget. Se avsnitt 4.</li>
                                </ul>
                            </div>
                        </text>
                    </section>
                    <section>
                        <title value="I dette pakningsvedlegget finner du informasjon om:"/>
                        <code>
                            <coding>
                                <system value="https://gravitatehealth.eu/section"/>
                                <code value="toc"/>
                            </coding>
                        </code>
                        <text>
                            <status value="additional"/>
                            <div xmlns="http://www.w3.org/1999/xhtml">
                                <h2>I dette pakningsvedlegget finner du informasjon om:</h2>
                                <ol>
                                    <li>Hva Brakelyx er og hva det brukes mot</li>
                                    <li>Hva du m vite fr du bruker Brakelyx</li>
                                    <li>Hvordan du bruker Brakelyx</li>
                                    <li>Mulige bivirkninger</li>
                                    <li>Hvordan du oppbevarer Brakelyx</li>
                                    <li>Innholdet i pakningen og ytterligere informasjon</li>
                                </ol>
                            </div>
                        </text>
                    </section>
                    <section>
                        <title value="1. Hva Brakelyx er og hva det brukes mot"/>
                        <code>
                            <coding>
                                <system
                                    value="https://spor.ema.europa.eu/v1/lists/200000029659/terms/"/>
                                <code value="200000029895"/>
                            </coding>
                        </code>
                        <text>
                            <status value="additional"/>
                            <div xmlns="http://www.w3.org/1999/xhtml">
                                <h2>1. Hva Brakelyx er og hva det brukes mot</h2>
                                <p>Lorem ipsum dolor sit amet, consectetur adipiscing elit. Integer cursus pulvinar nisl vitae lobortis. Nam auctor dolor at ante varius, et pellentesque nisl luctus. Phasellus a tellus elit. Vestibulum vitae consectetur nibh, non imperdiet augue. Fusce erat justo, mollis at porttitor cursus, sollicitudin in ex.</p>
                                <p>Pellentesque habitant morbi tristique senectus et netus et malesuada fames ac turpis egestas. Ut eu luctus diam. Quisque blandit rhoncus felis, eu gravida ex egestas non.</p>
                                <p>Vivamus vitae turpis nec eros luctus tempus. Proin iaculis condimentum urna et laoreet. Nunc varius, sem in accumsan pellentesque, erat nunc rutrum sapien, et lobortis dui eros a ex. Aenean scelerisque, velit eget luctus auctor, lectus ipsum pharetra tortor, vitae laoreet sapien ligula ac diam.</p>
                            </div>
                        </text>
                    </section>
                    <section>
                        <title value="2. Hva du m vite fr du bruker Brakelyx"/>
                        <code>
                            <coding>
                                <system
                                    value="https://spor.ema.europa.eu/v1/lists/200000029659/terms/"/>
                                <code value="200000029896"/>
                            </coding>
                        </code>
                        <text>
                            <status value="additional"/>
                            <div xmlns="http://www.w3.org/1999/xhtml">
                                <h2>2. Hva du m vite fr du bruker Brakelyx</h2>
                            </div>
                        </text>
                        <section>
                            <title value="Bruk ikke Brakelyx"/>
                            <code>
                                <coding>
                                    <system
                                        value="https://spor.ema.europa.eu/v1/lists/200000029659/terms/"/>
                                    <code value="200000029897"/>
                                </coding>
                            </code>
                            <text>
                                <status value="additional"/>
                                <div xmlns="http://www.w3.org/1999/xhtml">
                                    <h3>Bruk ikke Brakelyx</h3>
                                    <ul>
                                        <li>Diam vel quam elementum pulvinar etiam non.</li>
                                        <li>Sollicitudin ac orci phasellus egestas tellus.</li>
                                    </ul>
                                    <p>Sed tincidunt eleifend libero malesuada consequat. Orci varius natoque penatibus et magnis dis parturient montes, nascetur ridiculus mus. Vestibulum ante ipsum primis in faucibus orci luctus et ultrices posuere cubilia curae; Fusce ut tincidunt quam.</p>
                                </div>
                            </text>
                        </section>
                        <section>
                            <title value="Advarsler og forsiktighetsregler"/>
                            <code>
                                <coding>
                                    <system
                                        value="https://spor.ema.europa.eu/v1/lists/200000029659/terms/"/>
                                    <code value="200000029898"/>
                                </coding>
                            </code>
                            <text>
                                <status value="additional"/>
                                <div xmlns="http://www.w3.org/1999/xhtml">
                                    <h3>Advarsler og forsiktighetsregler</h3>
                                    <p>Diam donec adipiscing tristique risus nec feugiat in fermentum posuere. Mauris vitae ultricies leo integer malesuada nunc vel risus. In imperdiet massa pulvinar justo varius, ac viverra augue interdum. Integer iaculis quis ex eget porttitor. Donec faucibus pulvinar viverra.</p>
                                    <p>Fusce eu rhoncus velit. Fusce sed porta diam. Suspendisse ut neque id felis ultricies efficitur. Integer placerat eu erat molestie facilisis.</p>
                                </div>
                            </text>
                        </section>
                        <section>
                            <title value="Barn og ungdom"/>
                            <code>
                                <coding>
                                    <system
                                        value="https://spor.ema.europa.eu/v1/lists/200000029659/terms/"/>
                                    <code value="200000029899"/>
                                </coding>
                            </code>
                            <text>
                                <status value="additional"/>
                                <div xmlns="http://www.w3.org/1999/xhtml">
                                    <h3>Barn og ungdom</h3>
                                    <p>Interdum velit laoreet id donec ultrices tincidunt arcu non. Commodo odio aenean sed adipiscing. Vestibulum ante ipsum primis in faucibus orci luctus et ultrices posuere cubilia curae; Nunc gravida massa sit amet enim consequat, a scelerisque arcu tristique. Praesent rutrum, dui nec placerat sollicitudin, lorem nulla interdum urna, eu bibendum metus massa at nisl. Aliquam arcu eros, hendrerit ut ex sit amet, lobortis sodales massa.</p>
                                </div>
                            </text>
                        </section>
                        <section>
                            <title value="Andre legemidler og Brakelyx"/>
                            <code>
                                <coding>
                                    <system value="https://spor.ema.europa.eu/v1/lists/200000029659/terms/"/>
                                    <code value="200000029900"/>
                                </coding>
                            </code>
                            <text>
                                <status value="additional"/>
                                <div xmlns="http://www.w3.org/1999/xhtml">
                                    <h3>Andre legemidler og Brakelyx</h3>
                                    <p>Blandit aliquam etiam erat velit scelerisque. Lobortis scelerisque fermentum dui faucibus in ornare quam viverra orci.</p>
                                    <ul>
                                        <li>Integer ac scelerisque elit.</li>
                                        <li>Donec pretium id sem eu interdum.</li>
                                    </ul>
                                    <p>Curabitur tristique, risus eget consectetur bibendum, est arcu bibendum massa, ut scelerisque mauris elit et lacus. In sit amet posuere purus. In hendrerit commodo vulputate.</p>
                                </div>
                            </text>
                        </section>
                        <section>
                            <title value="Inntak av Brakelyx sammen med mat, drikke og alkohol"/>
                            <code>
                                <coding>
                                    <system
                                        value="https://spor.ema.europa.eu/v1/lists/200000029659/terms/"/>
                                    <code value="200000029901"/>
                                </coding>
                            </code>
                            <text>
                                <status value="additional"/>
                                <div xmlns="http://www.w3.org/1999/xhtml">
                                    <h3>Inntak av Brakelyx sammen med mat, drikke og alkohol</h3>
                                    <p>In nulla posuere sollicitudin aliquam ultrices sagittis. In arcu cursus euismod quis.</p>
                                </div>
                            </text>
                        </section>
                        <section>
                            <title value="Graviditet og amming"/>
                            <code>
                                <coding>
                                    <system
                                        value="https://spor.ema.europa.eu/v1/lists/200000029659/terms/"/>
                                    <code value="200000029902"/>
                                </coding>
                            </code>
                            <text>
                                <status value="additional"/>
                                <div xmlns="http://www.w3.org/1999/xhtml">
                                    <h3>Graviditet og amming</h3>
                                    <p>Tellus id interdum velit laoreet id donec ultrices. Neque aliquam vestibulum morbi blandit. Quisque odio dui, consequat ut eros eget, sollicitudin ullamcorper mauris. Integer sem dui, pellentesque et tellus non, facilisis ullamcorper ipsum. Phasellus at pulvinar ligula. Nunc et justo porttitor, dignissim libero quis, tempor justo. Aenean vitae sagittis purus. Pellentesque aliquam sem at nibh ultrices viverra.</p>
                                    <p>Nunc feugiat placerat nibh tincidunt gravida. Duis in velit rhoncus, hendrerit magna nec, varius lacus. Sed vestibulum at ipsum eget viverra. Donec maximus risus dui, vitae fringilla nulla imperdiet et.</p>
                                </div>
                            </text>
                        </section>
                        <section>
                            <title value="Kjring og bruk av maskiner"/>
                            <code>
                                <coding>
                                    <system
                                        value="https://spor.ema.europa.eu/v1/lists/200000029659/terms/"/>
                                    <code value="200000029903"/>
                                </coding>
                            </code>
                            <text>
                                <status value="additional"/>
                                <div xmlns="http://www.w3.org/1999/xhtml">
                                    <h3>Kjring og bruk av maskiner</h3>
                                    <p>A erat nam at lectus urna duis. Et tortor consequat id porta nibh venenatis. Nec feugiat in fermentum posuere urna nec tincidunt praesent. Vivamus sed purus velit. Morbi arcu odio, fringilla nec neque vitae, placerat convallis velit. Nulla id nunc at purus feugiat fermentum vel consectetur erat. Nulla auctor dictum condimentum. Donec a vehicula massa, sit amet lobortis ipsum. Integer eget dolor dictum, lobortis quam quis, sollicitudin purus.</p>
                                </div>
                            </text>
                        </section>
                        <section>
                            <title value="Brakelyx inneholder melkesukker (laktose)"/>
                            <code>
                                <coding>
                                    <system
                                        value="https://spor.ema.europa.eu/v1/lists/200000029659/terms/"/>
                                    <code value="200000029904"/>
                                </coding>
                            </code>
                            <text>
                                <status value="additional"/>
                                <div xmlns="http://www.w3.org/1999/xhtml">
                                    <h3>Brakelyx inneholder melkesukker (laktose)</h3>
                                    <p>Faucibus purus in massa tempor nec. Netus et malesuada fames ac turpis egestas sed tempus urna.</p>
                                </div>
                            </text>
                        </section>
                    </section>
                    <section>
                        <title value="3. Hvordan du bruker Brakelyx"/>
                        <code>
                            <coding>
                                <system
                                    value="https://spor.ema.europa.eu/v1/lists/200000029659/terms/"/>
                                <code value="200000029905"/>
                            </coding>
                        </code>
                        <text>
                            <status value="additional"/>
                            <div xmlns="http://www.w3.org/1999/xhtml">
                                <h2>3. Hvordan du bruker Brakelyx</h2>
                                <p>In aliquam sem fringilla ut morbi tincidunt. In dictum non consectetur a erat nam. Nunc rhoncus viverra velit, nec eleifend enim mollis in. Sed ullamcorper vel turpis varius fringilla. Mauris gravida quam vel libero iaculis accumsan.</p>
                                <p><img src="#img-1" alt="Tekstalternativ"/></p>
                                <p>Duis sit amet diam erat. Aliquam sagittis accumsan est sed aliquam. Mauris mollis maximus nisl, nec ultricies nulla porttitor sed. Phasellus lobortis elit ut est condimentum, vel sagittis augue congue. Suspendisse fermentum quam non tincidunt dignissim. Pellentesque velit turpis, hendrerit at felis maximus, placerat venenatis tortor. Pellentesque tellus orci, viverra id eleifend id, molestie quis felis. Nulla facilisi.</p>
                            </div>
                        </text>
                        <section>
                            <title value="Dersom du tar for mye av Brakelyx"/>
                            <code>
                                <coding>
                                    <system
                                        value="https://spor.ema.europa.eu/v1/lists/200000029659/terms/"/>
                                    <code value="200000029907"/>
                                </coding>
                            </code>
                            <text>
                                <status value="additional"/>
                                <div xmlns="http://www.w3.org/1999/xhtml">
                                    <h3>Dersom du tar for mye av Brakelyx</h3>
                                    <p>Nulla porttitor massa id neque aliquam vestibulum. Nulla pharetra diam sit amet nisl suscipit. Faucibus in ornare quam viverra orci.</p>
                                </div>
                            </text>
                        </section>
                        <section>
                            <title value="Dersom du har glemt  ta Brakelyx"/>
                            <code>
                                <coding>
                                    <system value="https://spor.ema.europa.eu/v1/lists/200000029659/terms/"/>
                                    <code value="200000029908"/>
                                </coding>
                            </code>
                            <text>
                                <status value="additional"/>
                                <div xmlns="http://www.w3.org/1999/xhtml">
                                    <h3>Dersom du har glemt  ta Brakelyx</h3>
                                    <p>Faucibus nisl tincidunt eget nullam non nisi est sit. Eget nulla facilisi etiam dignissim diam quis.</p>
                                </div>
                            </text>
                        </section>
                        <section>
                            <title value="Dersom du avbryter behandling med Brakelyx"/>
                            <code>
                                <coding>
                                    <system
                                        value="https://spor.ema.europa.eu/v1/lists/200000029659/terms/"/>
                                    <code value="200000029909"/>
                                </coding>
                            </code>
                            <text>
                                <status value="additional"/>
                                <div xmlns="http://www.w3.org/1999/xhtml">
                                    <h3>Dersom du avbryter behandling med Brakelyx</h3>
                                    <p>Turpis egestas sed tempus urna et pharetra pharetra. At tellus at urna condimentum mattis.</p>
                                </div>
                            </text>
                        </section>
                    </section>
                    <section>
                        <title value="4. Mulige bivirkninger"/>
                        <code>
                            <coding>
                                <system
                                    value="https://spor.ema.europa.eu/v1/lists/200000029659/terms/"/>
                                <code value="200000029910"/>
                            </coding>
                        </code>
                        <text>
                            <status value="additional"/>
                            <div xmlns="http://www.w3.org/1999/xhtml">
                                <h2>4. Mulige bivirkninger</h2>
                                <p>Ultrices eros in cursus turpis massa tincidunt dui ut ornare. Mi ipsum faucibus vitae aliquet nec ullamcorper sit. Elit sed vulputate mi sit. Etiam dignissim diam quis enim. Vitae et leo duis ut.</p>
                            </div>
                        </text>
                        <section>
                            <title value="Melding av bivirkninger"/>
                            <code>
                                <coding>
                                    <system
                                        value="https://spor.ema.europa.eu/v1/lists/200000029659/terms/"/>
                                    <code value="200000029912"/>
                                </coding>
                            </code>
                            <text>
                                <status value="additional"/>
                                <div xmlns="http://www.w3.org/1999/xhtml">
                                    <h3>Melding av bivirkninger</h3>
                                    <p>Kontakt lege, apotek eller sykepleier dersom du opplever bivirkninger. Dette gjelder ogs bivirkninger som ikke er nevnt i pakningsvedlegget. Du kan ogs melde fra om bivirkninger direkte via meldeskjema som finnes p nettsiden til Statens legemiddelverk: <a href="https://www.legemiddelverket.no/pasientmelding" title="www.legemiddelverket.no/pasientmelding">www.legemiddelverket.no/pasientmelding</a>. Ved  melde fra om bivirkninger bidrar du med informasjon om sikkerheten ved bruk av dette legemidlet.</p>
                                </div>
                            </text>
                        </section>
                    </section>
                    <section>
                        <title value="5. Hvordan du oppbevarer Brakelyx"/>
                        <code>
                            <coding>
                                <system
                                    value="https://spor.ema.europa.eu/v1/lists/200000029659/terms/"/>
                                <code value="200000029913"/>
                            </coding>
                        </code>
                        <text>
                            <status value="additional"/>
                            <div xmlns="http://www.w3.org/1999/xhtml">
                                <h2>5. Hvordan du oppbevarer Brakelyx</h2>
                                <p>Proin sagittis nisl rhoncus mattis rhoncus. Mattis ullamcorper velit sed ullamcorper morbi tincidunt ornare massa.</p>
                            </div>
                        </text>
                    </section>
                    <section>
                        <title value="6. Innholdet i pakningen og ytterligere informasjon"/>
                        <code>
                            <coding>
                                <system
                                    value="https://spor.ema.europa.eu/v1/lists/200000029659/terms/"/>
                                <code value="200000029914"/>
                            </coding>
                        </code>
                        <text>
                            <status value="additional"/>
                            <div xmlns="http://www.w3.org/1999/xhtml">
                                <h2>6. Innholdet i pakningen og ytterligere informasjon</h2>
                            </div>
                        </text>
                        <section>
                            <title value="Sammensetning av Brakelyx"/>
                            <code>
                                <coding>
                                    <system
                                        value="https://spor.ema.europa.eu/v1/lists/200000029659/terms/"/>
                                    <code value="200000029915"/>
                                </coding>
                            </code>
                            <text>
                                <status value="additional"/>
                                <div xmlns="http://www.w3.org/1999/xhtml">
                                    <h3>Sammensetning av Brakelyx</h3>
                                    <p>Quisque sagittis purus sit amet. Massa placerat duis ultricies lacus sed turpis tincidunt.</p>
                                </div>
                            </text>
                        </section>
                        <section>
                            <title value="Hvordan Brakelyx ser ut og innholdet i pakningen"/>
                            <code>
                                <coding>
                                    <system value="https://spor.ema.europa.eu/v1/lists/200000029659/terms/"/>
                                    <code value="200000029916"/>
                                </coding>
                            </code>
                            <text>
                                <status value="additional"/>
                                <div xmlns="http://www.w3.org/1999/xhtml">
                                    <h3>Hvordan Brakelyx ser ut og innholdet i pakningen</h3>
                                    <p>At imperdiet dui accumsan sit amet nulla facilisi morbi. Interdum posuere lorem ipsum dolor sit amet.</p>
                                </div>
                            </text>
                        </section>
                        <section>
                            <title value="Innehaver av markedsfringstillatelsen"/>
                            <code>
                                <coding>
                                    <system
                                        value="https://spor.ema.europa.eu/v1/lists/200000029659/terms/"/>
                                    <code value="200000029917"/>
                                </coding>
                            </code>
                            <text>
                                <status value="additional"/>
                                <div xmlns="http://www.w3.org/1999/xhtml">
                                    <h3>Innehaver av markedsfringstillatelsen</h3>
                                    <p>Eget nunc lobortis mattis aliquam faucibus purus in.</p>
                                    <h4>Tilvirker</h4>
                                    <p>Eu augue ut lectus arcu bibendum at varius.</p>
                                </div>
                            </text>
                        </section>
                        <section>
                            <title value="Dette pakningsvedlegget ble sist oppdatert 26.03.2023"/>
                            <code>
                                <coding>
                                    <system
                                        value="https://spor.ema.europa.eu/v1/lists/200000029659/terms/"/>
                                    <code value="200000029919"/>
                                </coding>
                            </code>
                            <text>
                                <status value="additional"/>
                                <div xmlns="http://www.w3.org/1999/xhtml">
                                    <h3>Dette pakningsvedlegget ble sist oppdatert 26.03.2023</h3>
                                </div>
                            </text>
                        </section>
                    </section>
                </section>
            </Composition>
        </resource>
    </entry>
    <entry>
        <fullUrl value="https://gravitatehealth.eu/fhir/nordic-epi/MedicinalProductDefinition/MPD-Norway-1"/>
        <resource>
            <MedicinalProductDefinition>
                <id value="MPD-Norway-1"/>
                <meta>
                    <profile value="http://hl7.org/fhir/uv/emedicinal-product-info/StructureDefinition/MedicinalProductDefinition-uv-epi"/>
                    <profile value="https://gravitatehealth.eu/fhir/nordic-epi-ig/StructureDefinition/Nordic-ePI-MedicinalProductDefinition"/>
                </meta>
                <identifier>
                    <system value="http://legemiddelverket.no/FEST/LegemiddelMerkevareID"/>
                    <value value="ID_12345678-ABCD-ABCD-ABCD-12345678ABCD"/>
                </identifier>
                <combinedPharmaceuticalDoseForm>
                    <coding>
                        <system value="urn:oid:2.16.578.1.12.4.1.1.7448"/>
                        <code value="53"/>
                        <display value="Tablett"/>
                    </coding>
                    <text value="Tablett"/>
                </combinedPharmaceuticalDoseForm>
                <classification>
                    <coding>
                        <system value="http://www.whocc.no/atc"/>
                        <code value="A01AA01"/>
                    </coding>
                </classification>
                <name>
                    <productName value="Brakelyx 100 mg tabletter"/>
                </name>
            </MedicinalProductDefinition>
        </resource>
    </entry>
    <entry>
        <fullUrl value="https://gravitatehealth.eu/fhir/nordic-epi/MedicinalProductDefinition/MPD-Norway-2"/>
        <resource>
            <MedicinalProductDefinition>
                <id value="MPD-Norway-2"/>
                <meta>
                    <profile value="http://hl7.org/fhir/uv/emedicinal-product-info/StructureDefinition/MedicinalProductDefinition-uv-epi"/>
                    <profile value="https://gravitatehealth.eu/fhir/nordic-epi-ig/StructureDefinition/Nordic-ePI-MedicinalProductDefinition"/>
                </meta>
                <identifier>
                    <system value="http://legemiddelverket.no/FEST/LegemiddelMerkevareID"/>
                    <value value="ID_23456789-ABCD-ABCD-ABCD-12345678ABCD"/>
                </identifier>
                <combinedPharmaceuticalDoseForm>
                    <coding>
                        <system value="urn:oid:2.16.578.1.12.4.1.1.7448"/>
                        <code value="53"/>
                        <display value="Tablett"/>
                    </coding>
                    <text value="Tablett"/>
                </combinedPharmaceuticalDoseForm>
                <classification>
                    <coding>
                        <system value="http://www.whocc.no/atc"/>
                        <code value="A01AA01"/>
                    </coding>
                </classification>
                <name>
                    <productName value="Brakelyx 250 mg tabletter"/>
                </name>
            </MedicinalProductDefinition>
        </resource>
    </entry>
    <entry>
        <fullUrl value="https://gravitatehealth.eu/fhir/nordic-epi/PackagedProductDefinition/PPD-Norway-1"/>
        <resource>
            <PackagedProductDefinition>
                <id value="PPD-Norway-1"/>
                <meta>
                    <profile value="http://hl7.org/fhir/uv/emedicinal-product-info/StructureDefinition/PackagedProductDefinition-uv-epi"/>
                    <profile value="https://gravitatehealth.eu/fhir/nordic-epi-ig/StructureDefinition/Nordic-ePI-PackagedProductDefinition"/>
                </meta>
                <identifier>
                    <system value="http://legemiddelverket.no/FEST/LegemiddelPakningID"/>
                    <value value="ID_12345678-ABCD-ABCD-ABCD-12345678ABCD"/>
                </identifier>
                <identifier>
                    <system value="https://farmalogg.no/varenummer"/>
                    <value value="123456"/>
                </identifier>
                <name value="Brakelyx 100 mg tabletter"/>
                <packageFor>
                    <reference value="MedicinalProductDefinition/MPD-Norway-1"/>
                </packageFor>
                <packaging>
                    <property>
                        <type>
                            <coding>
                                <system value="http://terminology.hl7.org/CodeSystem/medicationknowledge-characteristic"/>
                                <code value="image"/>
                            </coding>
                        </type>
                        <valueAttachment>
                            <contentType value="image/png"/>
                            <data value=""/>
                        </valueAttachment>
                    </property>
                </packaging>
            </PackagedProductDefinition>
        </resource>
    </entry>
    <entry>
        <fullUrl value="https://gravitatehealth.eu/fhir/nordic-epi/PackagedProductDefinition/PPD-Norway-2"/>
        <resource>
            <PackagedProductDefinition>
                <id value="PPD-Norway-2"/>
                <meta>
                    <profile value="http://hl7.org/fhir/uv/emedicinal-product-info/StructureDefinition/PackagedProductDefinition-uv-epi"/>
                    <profile value="https://gravitatehealth.eu/fhir/nordic-epi-ig/StructureDefinition/Nordic-ePI-PackagedProductDefinition"/>
                </meta>
                <identifier>
                    <system value="http://legemiddelverket.no/FEST/LegemiddelPakningID"/>
                    <value value="ID_23456789-ABCD-ABCD-ABCD-12345678ABCD"/>
                </identifier>
                <identifier>
                    <system value="https://farmalogg.no/varenummer"/>
                    <value value="234567"/>
                </identifier>
                <name value="Brakelyx 250 mg tabletter"/>
                <packageFor>
                    <reference value="MedicinalProductDefinition/MPD-Norway-2"/>
                </packageFor>
                <packaging>
                    <property>
                        <type>
                            <coding>
                                <system value="http://terminology.hl7.org/CodeSystem/medicationknowledge-characteristic"/>
                                <code value="image"/>
                            </coding>
                        </type>
                        <valueAttachment>
                            <contentType value="image/png"/>
                            <data value=""/>
                        </valueAttachment>
                    </property>
                </packaging>
            </PackagedProductDefinition>
        </resource>
    </entry>
    <entry>
        <fullUrl value="https://gravitatehealth.eu/fhir/nordic-epi/RegulatedAuthorization/RA-Norway-1"/>
        <resource>
            <RegulatedAuthorization>
                <id value="RA-Norway-1"/>
                <meta>
                    <profile value="http://hl7.org/fhir/uv/emedicinal-product-info/StructureDefinition/RegulatedAuthorization-uv-epi"/>
                </meta>
                <identifier>
                    <system value="http://ema.europa.eu/fhir/marketingAuthorizationNumber"/>
                    <value value="01-1234"/>
                </identifier>
                <subject>
                    <reference value="PackagedProductDefinition/PPD-Norway-1"/>
                </subject>
                <type>
                    <coding>
                        <system value="https://spor.ema.europa.eu/v1/lists/220000000060/terms/"/>
                        <code value="220000000061"/>
                        <display value="Markedsfringstillatelse"/>
                    </coding>
                </type>
                <region>
                    <coding>
                        <system value="https://spor.ema.europa.eu/v1/lists/100000000002/terms/"/>
                        <code value="100000000489"/>
                        <display value="Norge"/>
                    </coding>
                </region>
                <status>
                    <coding>
                        <system value="https://spor.ema.europa.eu/v1/lists/100000072049/terms/"/>
                        <code value="100000072099"/>
                        <display value="Gyldig"/>
                    </coding>
                </status>
                <holder>
                    <display value="ACME Corp."/>
                </holder>
            </RegulatedAuthorization>
        </resource>
    </entry>
    <entry>
        <fullUrl value="https://gravitatehealth.eu/fhir/nordic-epi/RegulatedAuthorization/RA-Norway-2"/>
        <resource>
            <RegulatedAuthorization>
                <id value="RA-Norway-2"/>
                <meta>
                    <profile value="http://hl7.org/fhir/uv/emedicinal-product-info/StructureDefinition/RegulatedAuthorization-uv-epi"/>
                </meta>
                <identifier>
                    <system value="http://ema.europa.eu/fhir/marketingAuthorizationNumber"/>
                    <value value="01-2345"/>
                </identifier>
                <subject>
                    <reference value="PackagedProductDefinition/PPD-Norway-2"/>
                </subject>
                <type>
                    <coding>
                        <system value="https://spor.ema.europa.eu/v1/lists/220000000060/terms/"/>
                        <code value="220000000061"/>
                        <display value="Markedsfringstillatelse"/>
                    </coding>
                </type>
                <region>
                    <coding>
                        <system value="https://spor.ema.europa.eu/v1/lists/100000000002/terms/"/>
                        <code value="100000000489"/>
                        <display value="Norge"/>
                    </coding>
                </region>
                <status>
                    <coding>
                        <system value="https://spor.ema.europa.eu/v1/lists/100000072049/terms/"/>
                        <code value="100000072099"/>
                        <display value="Gyldig"/>
                    </coding>
                </status>
                <holder>
                    <display value="ACME Corp."/>
                </holder>
            </RegulatedAuthorization>
        </resource>
    </entry>
    <entry>
        <fullUrl value="https://gravitatehealth.eu/fhir/nordic-epi/Ingredient/Ing-Norway-1"/>
        <resource>
            <Ingredient>
                <id value="Ing-Norway-1"/>
                <meta>
                    <profile value="http://hl7.org/fhir/uv/emedicinal-product-info/StructureDefinition/Ingredient-uv-epi"/>
                </meta>
                <identifier>
                    <system value="http://legemiddelverket.no/FEST/VirkestoffMedStyrkeID"/>
                    <value value="ID_12345678-ABCD-ABCD-ABCD-12345678ABCD"/>
                </identifier>
                <status value="active"/>
                <for>
                    <reference value="MedicinalProductDefinition/MPD-Norway-1"/>
                </for>
                <role>
                    <coding>
                        <system value="https://spor.ema.europa.eu/v1/lists/100000072050/terms/"/>
                        <code value="100000072072"/>
                        <display value="Virkestoff"/>
                    </coding>
                </role>
                <substance>
                    <code>
                        <reference>
                            <reference value="SubstanceDefinition/SD-Norway-1"/>
                        </reference>
                    </code>
                    <strength>
                        <presentationQuantity>
                            <value value="100"/>
                            <unit value="mg"/>
                        </presentationQuantity>
                    </strength>
                </substance>
            </Ingredient>
        </resource>
    </entry>
    <entry>
        <fullUrl value="https://gravitatehealth.eu/fhir/nordic-epi/Ingredient/Ing-Norway-2"/>
        <resource>
            <Ingredient>
                <id value="Ing-Norway-2"/>
                <meta>
                    <profile value="http://hl7.org/fhir/uv/emedicinal-product-info/StructureDefinition/Ingredient-uv-epi"/>
                </meta>
                <identifier>
                    <system value="http://legemiddelverket.no/FEST/VirkestoffMedStyrkeID"/>
                    <value value="ID_23456789-ABCD-ABCD-ABCD-12345678ABCD"/>
                </identifier>
                <status value="active"/>
                <for>
                    <reference value="MedicinalProductDefinition/MPD-Norway-2"/>
                </for>
                <role>
                    <coding>
                        <system value="https://spor.ema.europa.eu/v1/lists/100000072050/terms/"/>
                        <code value="100000072072"/>
                        <display value="Virkestoff"/>
                    </coding>
                </role>
                <substance>
                    <code>
                        <reference>
                            <reference value="SubstanceDefinition/SD-Norway-1"/>
                        </reference>
                    </code>
                    <strength>
                        <presentationQuantity>
                            <value value="250"/>
                            <unit value="mg"/>
                        </presentationQuantity>
                    </strength>
                </substance>
            </Ingredient>
        </resource>
    </entry>
    <entry>
        <fullUrl value="https://gravitatehealth.eu/fhir/nordic-epi/SubstanceDefinition/SD-Norway-1"/>
        <resource>
            <SubstanceDefinition>
                <id value="SD-Norway-1"/>
                <meta>
                    <profile value="http://hl7.org/fhir/uv/emedicinal-product-info/StructureDefinition/SubstanceDefinition-uv-epi"/>
                </meta>
                <identifier>
                    <system value="http://legemiddelverket.no/FEST/VirkestoffID"/>
                    <value value="ID_12345678-ABCD-ABCD-ABCD-12345678ABCD"/>
                </identifier>
                <name>
                    <name value="Brakelypten"/>
                    <language>
                        <coding>
                            <system value="urn:ietf:bcp:47"/>
                            <code value="no"/>
                        </coding>
                    </language>
                </name>
                <name>
                    <name value="Bracelypthen"/>
                    <language>
                        <coding>
                            <system value="urn:ietf:bcp:47"/>
                            <code value="en"/>
                        </coding>
                    </language>
                </name>
            </SubstanceDefinition>
        </resource>
    </entry>
    <entry>
        <fullUrl value="https://gravitatehealth.eu/fhir/nordic-epi/DocumentReference/DR-Norway-1"/>
        <resource>
            <DocumentReference>
                <id value="DR-Norway-1"/>
                <identifier>
                    <system value="https://farmalogg.no/varenummer"/>
                    <value value="123456"/>
                </identifier>
                <identifier>
                    <system value="https://farmalogg.no/varenummer"/>
                    <value value="234567"/>
                </identifier>
                <status value="current"/>
                <type>
                    <coding>
                        <system value="https://felleskatalogen.no/medium/materiell-type"/>
                        <code value="instruksjonsveiledning"/>
                    </coding>
                </type>
                <author>
                    <display value="ACME Corp."/>
                </author>
                <description value="Instruksjonsfilm Brakelyx tabletter"/>
                <content>
                    <attachment>
                        <contentType value="video/mp4"/>
                        <!-- Source: https://www.pexels.com/video/pills-close-up-7033924/ -->
                        <url value="https://felleskatalogen.github.io/nordic-epi-ig/media/pharma-sample-video.mp4"/>
                        <size value="14305745"/>
                    </attachment>
                </content>
            </DocumentReference>
        </resource>
    </entry>
</Bundle>
